{
  "resourceType" : "Bundle",
  "id" : "2-7-BundleProvideDocument",
  "meta" : {
    "profile" : ["http://fhir.ch/ig/ch-epr-fhir/StructureDefinition/ch-mhd-providedocumentbundle-comprehensive",
    "https://profiles.ihe.net/ITI/MHD/StructureDefinition/IHE.MHD.Comprehensive.ProvideBundle"]
  },
  "type" : "transaction",
  "entry" : [{
    "fullUrl" : "urn:uuid:68a928c0-df48-4743-a291-bfb0609bbddc",
    "resource" : {
      "resourceType" : "List",
      "text" : {
        "status" : "extensions",
        "div" : "<div xmlns=\"http://www.w3.org/1999/xhtml\"> representation </div>"
      },
      "extension" : [{
        "url" : "https://profiles.ihe.net/ITI/MHD/StructureDefinition/ihe-designationType",
        "valueCodeableConcept" : {
          "coding" : [{
            "system" : "http://snomed.info/sct",
            "code" : "71388002",
            "display" : "Procedure (procedure)"
          }]
        }
      },
      {
        "url" : "https://profiles.ihe.net/ITI/MHD/StructureDefinition/ihe-sourceId",
        "valueIdentifier" : {
          "system" : "urn:ietf:rfc:3986",
          "value" : "urn:oid:1.3.6.1.4.1.12559.11.13.2.5"
        }
      },
      {
        "url" : "http://fhir.ch/ig/ch-epr-fhir/StructureDefinition/ch-ext-author-authorrole",
        "valueCoding" : {
          "system" : "urn:oid:2.16.756.5.30.1.127.3.10.6",
          "code" : "HCP",
          "display" : "Healthcare professional"
        }
      }],
      "identifier" : [{
        "use" : "usual",
        "system" : "urn:ietf:rfc:3986",
        "value" : "urn:oid:1.3.6.1.4.1.12559.11.13.2.6.2949"
      }],
      "status" : "current",
      "mode" : "working",
      "code" : {
        "coding" : [{
          "system" : "https://profiles.ihe.net/ITI/MHD/CodeSystem/MHDlistTypes",
          "code" : "submissionset",
          "display" : "SubmissionSet as a FHIR List"
        }]
      },
      "subject" : {
        "identifier" : {
          "system" : "urn:oid:2.16.756.5.30.1.127.3.10.3",
          "value" : "761337610411353650"
        }
      },
      "date" : "2020-06-29T12:01:30+00:00",
      "entry" : [{
        "item" : {
          "reference" : "urn:uuid:50383ae5-49e5-4dea-b0e6-660cb9e7b91f"
        }
      }]
    },
    "request" : {
      "method" : "POST",
      "url" : "List"
    }
  },
  {
    "fullUrl" : "urn:uuid:50383ae5-49e5-4dea-b0e6-660cb9e7b91f",
    "resource" : {
      "resourceType" : "DocumentReference",
      "text" : {
        "status" : "extensions",
        "div" : "<div xmlns=\"http://www.w3.org/1999/xhtml\"><a name=\"DocumentReference_null\"> </a><p class=\"res-header-id\"><b>Generated Narrative: DocumentReference </b></p><p><b>CH Extension Deletion Status</b>: <a href=\"http://fhir.ch/ig/ch-term/3.2.0/CodeSystem-2.16.756.5.30.1.127.3.10.18.html#2.16.756.5.30.1.127.3.10.18-urn.58e-health-suisse.582019.58deletionStatus.58deletionNotRequested\">ch-ehealth-codesystem-eprdeletionstatus urn:e-health-suisse:2019:deletionStatus:deletionNotRequested</a>: Deletion not Requested</p><p><b>CH Extension Author AuthorRole</b>: <a href=\"http://fhir.ch/ig/ch-term/3.2.0/CodeSystem-2.16.756.5.30.1.127.3.10.6.html#2.16.756.5.30.1.127.3.10.6-HCP\">ch-ehealth-codesystem-role HCP</a>: Healthcare professional</p><p><b>masterIdentifier</b>: <a href=\"http://terminology.hl7.org/6.2.0/NamingSystem-uri.html\" title=\"As defined by RFC 3986 (http://www.ietf.org/rfc/rfc3986.txt)(with many schemes defined in many RFCs). For OIDs and UUIDs, use the URN form (urn:oid:(note: lowercase) and urn:uuid:). See http://www.ietf.org/rfc/rfc3001.txt and http://www.ietf.org/rfc/rfc4122.txt \r\n\r\nThis oid is used as an identifier II.root to indicate the the extension is an absolute URI (technically, an IRI). Typically, this is used for OIDs and GUIDs. Note that when this OID is used with OIDs and GUIDs, the II.extension should start with urn:oid or urn:uuid: \r\n\r\nNote that this OID is created to aid with interconversion between CDA and FHIR - FHIR uses urn:ietf:rfc:3986 as equivalent to this OID. URIs as identifiers appear more commonly in FHIR.\r\n\r\nThis OID may also be used in CD.codeSystem.\">Uniform Resource Identifier (URI)</a>/urn:oid:1.3.6.1.4.1.12559.11.13.2.1.2951</p><p><b>status</b>: Current</p><p><b>type</b>: <span title=\"Codes:{http://snomed.info/sct 721912009}\">Medication summary document (record artifact)</span></p><p><b>category</b>: <span title=\"Codes:{http://snomed.info/sct 422735006}\">Summary clinical document (record artifact)</span></p><p><b>subject</b>: Identifier: <code>urn:oid:2.16.756.5.30.1.127.3.10.3</code>/761337610411353650</p><p><b>date</b>: 2020-06-29 11:58:00+0000</p><p><b>description</b>: 2-7-MedicationCard</p><p><b>securityLabel</b>: <span title=\"Codes:{http://snomed.info/sct 17621005}\">Normal (qualifier value)</span></p><blockquote><p><b>content</b></p><h3>Attachments</h3><table class=\"grid\"><tr><td style=\"display: none\">-</td><td><b>ContentType</b></td><td><b>Language</b></td><td><b>Url</b></td><td><b>Title</b></td><td><b>Creation</b></td></tr><tr><td style=\"display: none\">*</td><td>text/xml</td><td>German (Region=Switzerland)</td><td><a href=\"Bundle-2-7-BundleProvideDocument.html#urn-uuid-d8d1fe44-07e9-4a84-985f-fde97d77d54b\">Bundle: type = transaction</a></td><td>Medicationlist</td><td>2020-06-29 11:58:00+0000</td></tr></table><p><b>format</b>: <a href=\"https://profiles.ihe.net/fhir/ihe.formatcode.fhir/1.3.0/CodeSystem-formatcode.html#formatcode-urn.58ihe.58pharm.58pml.582013\">IHE Format Code set for use with Document Sharing urn:ihe:pharm:pml:2013</a>: Pharmacy PML</p></blockquote><h3>Contexts</h3><table class=\"grid\"><tr><td style=\"display: none\">-</td><td><b>FacilityType</b></td><td><b>PracticeSetting</b></td><td><b>SourcePatientInfo</b></td></tr><tr><td style=\"display: none\">*</td><td><span title=\"Codes:{http://snomed.info/sct 264358009}\">General practice premises (environment)</span></td><td><span title=\"Codes:{http://snomed.info/sct 394802001}\">General medicine (qualifier value)</span></td><td><a href=\"#hcnull/1\">Anonymous Patient (no stated gender), DoB Unknown ( Medical record number\u00a0(use:\u00a0usual,\u00a0))</a></td></tr></table><hr/><blockquote><p class=\"res-header-id\"><b>Generated Narrative: Patient #1</b></p><a name=\"null/1\"> </a><a name=\"hcnull/1\"> </a><a name=\"null/1-en-US\"> </a><p style=\"border: 1px #661aff solid; background-color: #e6e6ff; padding: 10px;\">Anonymous Patient (no stated gender), DoB Unknown ( Medical record number\u00a0(use:\u00a0usual,\u00a0))</p><hr/></blockquote></div>"
      },
      "contained" : [{
        "resourceType" : "Patient",
        "id" : "1",
        "identifier" : [{
          "use" : "usual",
          "type" : {
            "coding" : [{
              "system" : "http://terminology.hl7.org/CodeSystem/v2-0203",
              "code" : "MR"
            }]
          },
          "system" : "urn:oid:2.999.1.2.3.4",
          "value" : "8734"
        }]
      }],
      "extension" : [{
        "url" : "http://fhir.ch/ig/ch-epr-fhir/StructureDefinition/ch-ext-deletionstatus",
        "valueCoding" : {
          "system" : "urn:oid:2.16.756.5.30.1.127.3.10.18",
          "code" : "urn:e-health-suisse:2019:deletionStatus:deletionNotRequested"
        }
      },
      {
        "url" : "http://fhir.ch/ig/ch-epr-fhir/StructureDefinition/ch-ext-author-authorrole",
        "valueCoding" : {
          "system" : "urn:oid:2.16.756.5.30.1.127.3.10.6",
          "code" : "HCP",
          "display" : "Healthcare professional"
        }
      }],
      "masterIdentifier" : {
        "system" : "urn:ietf:rfc:3986",
        "value" : "urn:oid:1.3.6.1.4.1.12559.11.13.2.1.2951"
      },
      "status" : "current",
      "type" : {
        "coding" : [{
          "system" : "http://snomed.info/sct",
          "code" : "721912009",
          "display" : "Medication summary document (record artifact)"
        }]
      },
      "category" : [{
        "coding" : [{
          "system" : "http://snomed.info/sct",
          "code" : "422735006",
          "display" : "Summary clinical document (record artifact)"
        }]
      }],
      "subject" : {
        "identifier" : {
          "system" : "urn:oid:2.16.756.5.30.1.127.3.10.3",
          "value" : "761337610411353650"
        }
      },
      "date" : "2020-06-29T11:58:00+00:00",
      "description" : "2-7-MedicationCard",
      "securityLabel" : [{
        "coding" : [{
          "system" : "http://snomed.info/sct",
          "code" : "17621005",
          "display" : "Normal (qualifier value)"
        }]
      }],
      "content" : [{
        "attachment" : {
          "contentType" : "text/xml",
          "language" : "de-CH",
          "url" : "urn:uuid:d8d1fe44-07e9-4a84-985f-fde97d77d54b",
          "title" : "Medicationlist",
          "creation" : "2020-06-29T11:58:00+00:00"
        },
        "format" : {
          "system" : "http://ihe.net/fhir/ihe.formatcode.fhir/CodeSystem/formatcode",
          "code" : "urn:ihe:pharm:pml:2013",
          "display" : "Pharmacy PML"
        }
      }],
      "context" : {
        "facilityType" : {
          "coding" : [{
            "system" : "http://snomed.info/sct",
            "code" : "264358009",
            "display" : "General practice premises (environment)"
          }]
        },
        "practiceSetting" : {
          "coding" : [{
            "system" : "http://snomed.info/sct",
            "code" : "394802001",
            "display" : "General medicine (qualifier value)"
          }]
        },
        "sourcePatientInfo" : {
          "reference" : "#1"
        }
      }
    },
    "request" : {
      "method" : "POST",
      "url" : "DocumentReference"
    }
  },
  {
    "fullUrl" : "urn:uuid:d8d1fe44-07e9-4a84-985f-fde97d77d54b",
    "resource" : {
      "resourceType" : "Binary",
      "contentType" : "text/xml",
      "data" : "PENsaW5pY2FsRG9jdW1lbnQgeG1sbnM9InVybjpobDctb3JnOnYzIj4NCgk8dGl0bGU+SGVsbG88L3RpdGxlPg0KPC9DbGluaWNhbERvY3VtZW50PiA="
    },
    "request" : {
      "method" : "POST",
      "url" : "Binary"
    }
  }]
}