<?xml version="1.0" encoding="UTF-8"?>

<Bundle xmlns="http://hl7.org/fhir">
  <id value="UC1-SwissIpsDocument1"/>
  <meta>
    <profile value="http://fhir.ch/ig/ch-ips/StructureDefinition/ch-ips-document"/>
  </meta>
  <language value="de-CH"/>
  <identifier>
    <system value="urn:ietf:rfc:3986"/>
    <value value="urn:uuid:22f9773e-1a6b-4561-8642-849f15b43b02"/>
  </identifier>
  <type value="document"/>
  <timestamp value="2024-01-11T10:00:00+01:00"/>
  <entry>
    <fullUrl value="http://test.fhir.ch/r4/Composition/UC1-Composition1"/>
    <resource>
      <Composition>
        <id value="UC1-Composition1"/>
        <meta>
          <profile value="http://fhir.ch/ig/ch-ips/StructureDefinition/ch-ips-composition"/>
        </meta>
        <language value="de-CH"/>
        <text>
          <status value="generated"/><div xmlns="http://www.w3.org/1999/xhtml" xml:lang="de-CH" lang="de-CH"><a name="Composition_UC1-Composition1"> </a><p class="res-header-id"><b>Generated Narrative: Composition UC1-Composition1</b></p><a name="UC1-Composition1"> </a><a name="hcUC1-Composition1"> </a><a name="UC1-Composition1-en-US"> </a><div style="display: inline-block; background-color: #d9e0e7; padding: 6px; margin: 4px; border: 1px solid #8da1b4; border-radius: 5px; line-height: 60%"><p style="margin-bottom: 0px">Language: de-CH</p><p style="margin-bottom: 0px">Profile: <a href="StructureDefinition-ch-ips-composition.html">CH IPS Composition</a></p></div><p><b>identifier</b>: <a href="http://terminology.hl7.org/5.5.0/NamingSystem-uri.html" title="As defined by RFC 3986 (http://www.ietf.org/rfc/rfc3986.txt)(with many schemes defined in many RFCs). For OIDs and UUIDs, use the URN form (urn:oid:(note: lowercase) and urn:uuid:). See http://www.ietf.org/rfc/rfc3001.txt and http://www.ietf.org/rfc/rfc4122.txt 

This oid is used as an identifier II.root to indicate the the extension is an absolute URI (technically, an IRI). Typically, this is used for OIDs and GUIDs. Note that when this OID is used with OIDs and GUIDs, the II.extension should start with urn:oid or urn:uuid: 

Note that this OID is created to aid with interconversion between CDA and FHIR - FHIR uses urn:ietf:rfc:3986 as equivalent to this OID. URIs as identifiers appear more commonly in FHIR.

This OID may also be used in CD.codeSystem.">Uniform Resource Identifier (URI)</a>/urn:uuid:22f9773e-1a6b-4561-8642-849f15b43b02</p><p><b>status</b>: Final</p><p><b>type</b>: <span title="Codes:{http://loinc.org 60591-5}">Patient summary Document</span></p><p><b>date</b>: 2024-01-11 10:00:00+0100</p><p><b>author</b>: <a href="PractitionerRole-FamilienHausarztAtHausarzt.html">PractitionerRole</a></p><p><b>title</b>: Patient Summary for IPS Switerland</p><p><b>confidentiality</b>: normal</p><h3>Attesters</h3><table class="grid"><tr><td style="display: none">-</td><td><b>Mode</b></td><td><b>Party</b></td></tr><tr><td style="display: none">*</td><td>Legal</td><td><a href="Practitioner-FamilienHausarzt.html">Practitioner Familien Hausarzt </a></td></tr></table><p><b>custodian</b>: <a href="Organization-Hausarzt.html">Organization Hausarzt</a></p><h3>Events</h3><table class="grid"><tr><td style="display: none">-</td><td><b>Code</b></td><td><b>Period</b></td></tr><tr><td style="display: none">*</td><td><span title="Codes:{http://terminology.hl7.org/CodeSystem/v3-ActClass PCPR}">care provision</span></td><td>?? --&gt; 2024-01-11 10:00:00+0100</td></tr></table></div>
        </text>
        <identifier>
          <system value="urn:ietf:rfc:3986"/>
          <value value="urn:uuid:22f9773e-1a6b-4561-8642-849f15b43b02"/>
        </identifier>
        <status value="final"/>
        <type>
          <coding>
            <system value="http://loinc.org"/>
            <code value="60591-5"/>
            <display value="Patient summary Document"/>
          </coding>
        </type>
        <subject>
          <reference value="Patient/MonikaWegmueller"/>
        </subject>
        <date value="2024-01-11T10:00:00+01:00"/>
        <author>
          <reference value="PractitionerRole/FamilienHausarztAtHausarzt"/>
        </author>
        <title value="Patient Summary for IPS Switerland"/>
        <confidentiality value="N">
          <extension url="http://fhir.ch/ig/ch-core/StructureDefinition/ch-ext-epr-confidentialitycode">
            <valueCodeableConcept>
              <coding>
                <system value="http://snomed.info/sct"/>
                <code value="17621005"/>
                <display value="Normal (qualifier value)"/>
              </coding>
            </valueCodeableConcept>
          </extension>
        </confidentiality>
        <attester>
          <mode value="legal"/>
          <party>
            <reference value="Practitioner/FamilienHausarzt"/>
          </party>
        </attester>
        <custodian>
          <reference value="Organization/Hausarzt"/>
        </custodian>
        <event>
          <code>
            <coding>
              <system value="http://terminology.hl7.org/CodeSystem/v3-ActClass"/>
              <code value="PCPR"/>
              <display value="care provision"/>
            </coding>
          </code>
          <period>
            <end value="2024-01-11T10:00:00+01:00"/>
          </period>
        </event>
        <section>
          <title value="Medikation"/>
          <code>
            <coding>
              <system value="http://loinc.org"/>
              <code value="10160-0"/>
              <display value="History of Medication use Narrative"/>
            </coding>
          </code>
          <text>
            <status value="generated"/><div xmlns="http://www.w3.org/1999/xhtml"><ul><li>Metformin</li><li>Candesartan</li></ul></div>
          </text>
          <entry>
            <reference value="MedicationStatement/MedStatMetformin"/>
          </entry>
          <entry>
            <reference value="MedicationStatement/MedStatCandesartan"/>
          </entry>
        </section>
        <section>
          <title value="Allergien und Intoleranzen"/>
          <code>
            <coding>
              <system value="http://loinc.org"/>
              <code value="48765-2"/>
              <display value="Allergies and adverse reactions Document"/>
            </coding>
          </code>
          <text>
            <status value="generated"/><div xmlns="http://www.w3.org/1999/xhtml">Allergien und Intoleranzen nicht erfragt</div>
          </text>
          <emptyReason>
            <coding>
              <system value="http://terminology.hl7.org/CodeSystem/list-empty-reason"/>
              <code value="notasked"/>
              <display value="Not Asked"/>
            </coding>
          </emptyReason>
        </section>
        <section>
          <title value="Problemliste"/>
          <code>
            <coding>
              <system value="http://loinc.org"/>
              <code value="11450-4"/>
              <display value="Problem list - Reported"/>
            </coding>
          </code>
          <text>
            <status value="generated"/><div xmlns="http://www.w3.org/1999/xhtml"><ul><li>Diabetes mellitus Typ 2</li><li>Bluthochdruck</li><li>Koronare Herzkrankheit</li></ul></div>
          </text>
          <entry>
            <reference value="Condition/DiabetesMellitus"/>
          </entry>
          <entry>
            <reference value="Condition/HighBloodPressure"/>
          </entry>
          <entry>
            <reference value="Condition/CoronaryHeartDisease"/>
          </entry>
        </section>
        <section>
          <title value="Behandlungsverlauf"/>
          <code>
            <coding>
              <system value="http://loinc.org"/>
              <code value="47519-4"/>
              <display value="History of Procedures Document"/>
            </coding>
          </code>
          <text>
            <status value="generated"/><div xmlns="http://www.w3.org/1999/xhtml"><ul><li>Stent (27.09.2022) aufgrund koronarer Herzkrankheit</li></ul></div>
          </text>
          <entry>
            <reference value="Procedure/StentPlacement"/>
          </entry>
        </section>
      </Composition>
    </resource>
  </entry>
  <entry>
    <fullUrl value="http://test.fhir.ch/r4/Patient/MonikaWegmueller"/>
    <resource>
      <Patient>
        <id value="MonikaWegmueller"/>
        <meta>
          <profile value="http://fhir.ch/ig/ch-ips/StructureDefinition/ch-ips-patient"/>
        </meta>
        <text>
          <status value="generated"/><div xmlns="http://www.w3.org/1999/xhtml"><a name="Patient_MonikaWegmueller"> </a><p class="res-header-id"><b>Generated Narrative: Patient MonikaWegmueller</b></p><a name="MonikaWegmueller"> </a><a name="hcMonikaWegmueller"> </a><a name="MonikaWegmueller-en-US"> </a><div style="display: inline-block; background-color: #d9e0e7; padding: 6px; margin: 4px; border: 1px solid #8da1b4; border-radius: 5px; line-height: 60%"><p style="margin-bottom: 0px"/><p style="margin-bottom: 0px">Profile: <a href="StructureDefinition-ch-ips-patient.html">CH IPS Patient</a></p></div><p style="border: 1px #661aff solid; background-color: #e6e6ff; padding: 10px;">Monika Wegmüller  Female, DoB: 1943-05-15 ( Medical record number: 11111111)</p><hr/><table class="grid"><tr><td style="background-color: #f3f5da" title="Ways to contact the Patient">Contact Detail</td><td colspan="3">Wiesenstr. 12 Zürich 8003 CH </td></tr></table></div>
        </text>
        <identifier>
          <type>
            <coding>
              <system value="http://terminology.hl7.org/CodeSystem/v2-0203"/>
              <code value="MR"/>
              <display value="Medical record number"/>
            </coding>
          </type>
          <system value="urn:oid:2.999.1.2.3.4"/>
          <value value="11111111"/>
        </identifier>
        <name>
          <family value="Wegmüller"/>
          <given value="Monika"/>
        </name>
        <gender value="female"/>
        <birthDate value="1943-05-15"/>
        <address>
          <line value="Wiesenstr. 12"/>
          <city value="Zürich"/>
          <postalCode value="8003"/>
          <country value="CH"/>
        </address>
      </Patient>
    </resource>
  </entry>
  <entry>
    <fullUrl value="http://test.fhir.ch/r4/Practitioner/FamilienHausarzt"/>
    <resource>
      <Practitioner>
        <id value="FamilienHausarzt"/>
        <meta>
          <profile value="http://fhir.ch/ig/ch-ips/StructureDefinition/ch-ips-practitioner"/>
        </meta>
        <text>
          <status value="generated"/><div xmlns="http://www.w3.org/1999/xhtml"><a name="Practitioner_FamilienHausarzt"> </a><p class="res-header-id"><b>Generated Narrative: Practitioner FamilienHausarzt</b></p><a name="FamilienHausarzt"> </a><a name="hcFamilienHausarzt"> </a><a name="FamilienHausarzt-en-US"> </a><div style="display: inline-block; background-color: #d9e0e7; padding: 6px; margin: 4px; border: 1px solid #8da1b4; border-radius: 5px; line-height: 60%"><p style="margin-bottom: 0px"/><p style="margin-bottom: 0px">Profile: <a href="StructureDefinition-ch-ips-practitioner.html">CH IPS Practitioner</a></p></div><p><b>identifier</b>: <a href="https://www.gs1.org/standards/id-keys/gln" title="Global Location Number">GLN</a>/7601000121219</p><p><b>name</b>: Familien Hausarzt </p></div>
        </text>
        <identifier>
          <system value="urn:oid:2.51.1.3"/>
          <value value="7601000121219"/>
        </identifier>
        <name>
          <family value="Hausarzt"/>
          <given value="Familien"/>
        </name>
      </Practitioner>
    </resource>
  </entry>
  <entry>
    <fullUrl value="http://test.fhir.ch/r4/PractitionerRole/FamilienHausarztAtHausarzt"/>
    <resource>
      <PractitionerRole>
        <id value="FamilienHausarztAtHausarzt"/>
        <meta>
          <profile value="http://fhir.ch/ig/ch-ips/StructureDefinition/ch-ips-practitionerrole"/>
        </meta>
        <text>
          <status value="generated"/><div xmlns="http://www.w3.org/1999/xhtml"><a name="PractitionerRole_FamilienHausarztAtHausarzt"> </a><p class="res-header-id"><b>Generated Narrative: PractitionerRole FamilienHausarztAtHausarzt</b></p><a name="FamilienHausarztAtHausarzt"> </a><a name="hcFamilienHausarztAtHausarzt"> </a><a name="FamilienHausarztAtHausarzt-en-US"> </a><div style="display: inline-block; background-color: #d9e0e7; padding: 6px; margin: 4px; border: 1px solid #8da1b4; border-radius: 5px; line-height: 60%"><p style="margin-bottom: 0px"/><p style="margin-bottom: 0px">Profile: <a href="StructureDefinition-ch-ips-practitionerrole.html">CH IPS PractitionerRole</a></p></div><p><b>practitioner</b>: <a href="Practitioner-FamilienHausarzt.html">Practitioner Familien Hausarzt </a></p><p><b>organization</b>: <a href="Organization-Hausarzt.html">Organization Hausarzt</a></p></div>
        </text>
        <practitioner>
          <reference value="Practitioner/FamilienHausarzt"/>
        </practitioner>
        <organization>
          <reference value="Organization/Hausarzt"/>
        </organization>
      </PractitionerRole>
    </resource>
  </entry>
  <entry>
    <fullUrl value="http://test.fhir.ch/r4/Organization/Hausarzt"/>
    <resource>
      <Organization>
        <id value="Hausarzt"/>
        <meta>
          <profile value="http://fhir.ch/ig/ch-ips/StructureDefinition/ch-ips-organization"/>
        </meta>
        <text>
          <status value="generated"/><div xmlns="http://www.w3.org/1999/xhtml"><a name="Organization_Hausarzt"> </a><p class="res-header-id"><b>Generated Narrative: Organization Hausarzt</b></p><a name="Hausarzt"> </a><a name="hcHausarzt"> </a><a name="Hausarzt-en-US"> </a><div style="display: inline-block; background-color: #d9e0e7; padding: 6px; margin: 4px; border: 1px solid #8da1b4; border-radius: 5px; line-height: 60%"><p style="margin-bottom: 0px"/><p style="margin-bottom: 0px">Profile: <a href="StructureDefinition-ch-ips-organization.html">CH IPS Organization</a></p></div><p><b>identifier</b>: <a href="https://www.gs1.org/standards/id-keys/gln" title="Global Location Number">GLN</a>/7601000121219</p><p><b>name</b>: Hausarzt</p><p><b>address</b>: Krankenstrasse 2 Zürich 8005 CH </p></div>
        </text>
        <identifier>
          <system value="urn:oid:2.51.1.3"/>
          <value value="7601000121219"/>
        </identifier>
        <name value="Hausarzt"/>
        <address>
          <line value="Krankenstrasse 2"/>
          <city value="Zürich"/>
          <postalCode value="8005"/>
          <country value="CH"/>
        </address>
      </Organization>
    </resource>
  </entry>
  <entry>
    <fullUrl value="http://test.fhir.ch/r4/MedicationStatement/MedStatMetformin"/>
    <resource>
      <MedicationStatement>
        <id value="MedStatMetformin"/>
        <meta>
          <profile value="http://fhir.ch/ig/ch-ips/StructureDefinition/ch-ips-medicationstatement"/>
        </meta>
        <text>
          <status value="generated"/><div xmlns="http://www.w3.org/1999/xhtml"><a name="MedicationStatement_MedStatMetformin"> </a><p class="res-header-id"><b>Generated Narrative: MedicationStatement MedStatMetformin</b></p><a name="MedStatMetformin"> </a><a name="hcMedStatMetformin"> </a><a name="MedStatMetformin-en-US"> </a><div style="display: inline-block; background-color: #d9e0e7; padding: 6px; margin: 4px; border: 1px solid #8da1b4; border-radius: 5px; line-height: 60%"><p style="margin-bottom: 0px"/><p style="margin-bottom: 0px">Profile: <a href="StructureDefinition-ch-ips-medicationstatement.html">CH IPS MedicationStatement</a></p></div><p><b>status</b>: Active</p><p><b>medication</b>: <a href="#hcMedStatMetformin/Metformin">Medication METFORMIN Axapharm Filmtabl 500 mg (Blister 50 Stk)</a></p><p><b>subject</b>: <a href="Patient-MonikaWegmueller.html">Monika Wegmüller  Female, DoB: 1943-05-15 ( Medical record number: 11111111)</a></p><p><b>effective</b>: 2020-03-03 --&gt; (ongoing)</p><p><b>reasonCode</b>: <span title="Codes:">Diabetes</span></p><blockquote><p><b>dosage</b></p><p><b>patientInstruction</b>: Unzerkaut während oder nach den Mahlzeiten mit ausreichend Flüssigkeit einnehmen</p><p><b>timing</b>: Morning, Evening, Once</p><p><b>route</b>: <span title="Codes:{urn:oid:0.4.0.127.0.16.1.1.2.1 20053000}">zum Einnehmen</span></p><h3>DoseAndRates</h3><table class="grid"><tr><td style="display: none">-</td><td><b>Dose[x]</b></td></tr><tr><td style="display: none">*</td><td>1 Tablet (unit of presentation)<span style="background: LightGoldenRodYellow"> (Details: SNOMED CT  code732936001 = 'Tablet (unit of presentation)')</span></td></tr></table></blockquote><hr/><blockquote><p class="res-header-id"><b>Generated Narrative: Medication #Metformin</b></p><a name="MedStatMetformin/Metformin"> </a><a name="hcMedStatMetformin/Metformin"> </a><a name="MedStatMetformin/Metformin-en-US"> </a><div style="display: inline-block; background-color: #d9e0e7; padding: 6px; margin: 4px; border: 1px solid #8da1b4; border-radius: 5px; line-height: 60%"><p style="margin-bottom: 0px"/><p style="margin-bottom: 0px">Profile: <a href="StructureDefinition-ch-ips-medication.html">CH IPS Medication</a></p></div><p><b>code</b>: <span title="Codes:{urn:oid:2.51.1.1 7680590990115}">METFORMIN Axapharm Filmtabl 500 mg</span></p><p><b>form</b>: <span title="Codes:{urn:oid:0.4.0.127.0.16.1.1.2.1 10219000}">Tablette</span></p><p><b>amount</b>: 50 Tablet (unit of presentation)<span style="background: LightGoldenRodYellow"> (Details: SNOMED CT  code732936001 = 'Tablet (unit of presentation)')</span>/1 Package - unit of product usage (qualifier value)<span style="background: LightGoldenRodYellow"> (Details: SNOMED CT  code1681000175101 = 'Package - unit of product usage')</span></p></blockquote></div>
        </text>
        <contained>
          <Medication>
            <id value="Metformin"/>
            <meta>
              <profile value="http://fhir.ch/ig/ch-ips/StructureDefinition/ch-ips-medication"/>
            </meta>
            <code>
              <coding>
                <system value="urn:oid:2.51.1.1"/>
                <code value="7680590990115"/>
                <display value="METFORMIN Axapharm Filmtabl 500 mg (Blister 50 Stk)"/>
              </coding>
              <text value="METFORMIN Axapharm Filmtabl 500 mg"/>
            </code>
            <form>
              <coding>
                <system value="urn:oid:0.4.0.127.0.16.1.1.2.1"/>
                <code value="10219000"/>
                <display value="Tablet"/>
              </coding>
              <text value="Tablette"/>
            </form>
            <amount>
              <numerator>
                <value value="50"/>
                <unit value="Tablet (unit of presentation)"/>
                <system value="http://snomed.info/sct"/>
                <code value="732936001"/>
              </numerator>
              <denominator>
                <value value="1"/>
                <unit value="Package - unit of product usage (qualifier value)"/>
                <system value="http://snomed.info/sct"/>
                <code value="1681000175101"/>
              </denominator>
            </amount>
          </Medication>
        </contained>
        <status value="active"/>
        <medicationReference>
          <reference value="#Metformin"/>
        </medicationReference>
        <subject>
          <reference value="Patient/MonikaWegmueller"/>
        </subject>
        <effectivePeriod>
          <start value="2020-03-03"/>
        </effectivePeriod>
        <reasonCode>
          <text value="Diabetes"/>
        </reasonCode>
        <dosage>
          <patientInstruction value="Unzerkaut während oder nach den Mahlzeiten mit ausreichend Flüssigkeit einnehmen"/>
          <timing>
            <repeat>
              <boundsPeriod>
                <start value="2020-03-03"/>
              </boundsPeriod>
              <when value="MORN"/>
              <when value="EVE"/>
            </repeat>
          </timing>
          <route>
            <coding>
              <system value="urn:oid:0.4.0.127.0.16.1.1.2.1"/>
              <code value="20053000"/>
              <display value="Oral use"/>
            </coding>
            <text value="zum Einnehmen"/>
          </route>
          <doseAndRate>
            <doseQuantity>
              <value value="1"/>
              <unit value="Tablet (unit of presentation)"/>
              <system value="http://snomed.info/sct"/>
              <code value="732936001"/>
            </doseQuantity>
          </doseAndRate>
        </dosage>
      </MedicationStatement>
    </resource>
  </entry>
  <entry>
    <fullUrl value="http://test.fhir.ch/r4/MedicationStatement/MedStatCandesartan"/>
    <resource>
      <MedicationStatement>
        <id value="MedStatCandesartan"/>
        <meta>
          <profile value="http://fhir.ch/ig/ch-ips/StructureDefinition/ch-ips-medicationstatement"/>
        </meta>
        <text>
          <status value="generated"/><div xmlns="http://www.w3.org/1999/xhtml"><a name="MedicationStatement_MedStatCandesartan"> </a><p class="res-header-id"><b>Generated Narrative: MedicationStatement MedStatCandesartan</b></p><a name="MedStatCandesartan"> </a><a name="hcMedStatCandesartan"> </a><a name="MedStatCandesartan-en-US"> </a><div style="display: inline-block; background-color: #d9e0e7; padding: 6px; margin: 4px; border: 1px solid #8da1b4; border-radius: 5px; line-height: 60%"><p style="margin-bottom: 0px"/><p style="margin-bottom: 0px">Profile: <a href="StructureDefinition-ch-ips-medicationstatement.html">CH IPS MedicationStatement</a></p></div><p><b>status</b>: Active</p><p><b>medication</b>: <a href="#hcMedStatCandesartan/Candesartan">Medication CANDESARTAN-AMLODIP Mepha Kaps 8mg/5mg (Blister 98 Stk)</a></p><p><b>subject</b>: <a href="Patient-MonikaWegmueller.html">Monika Wegmüller  Female, DoB: 1943-05-15 ( Medical record number: 11111111)</a></p><p><b>effective</b>: 2020-03-03 --&gt; (ongoing)</p><p><b>reasonCode</b>: <span title="Codes:">Hypertonie</span></p><blockquote><p><b>dosage</b></p><p><b>patientInstruction</b>: Nehmen Sie die Kapseln täglich immer zur gleichen Tageszeit mit oder ohne Mahlzeit mit etwas Wasser ein.</p><p><b>timing</b>: Morning, Once</p><p><b>route</b>: <span title="Codes:{urn:oid:0.4.0.127.0.16.1.1.2.1 20053000}">zum Einnehmen</span></p><h3>DoseAndRates</h3><table class="grid"><tr><td style="display: none">-</td><td><b>Dose[x]</b></td></tr><tr><td style="display: none">*</td><td>1 Tablet (unit of presentation)<span style="background: LightGoldenRodYellow"> (Details: SNOMED CT  code732936001 = 'Tablet (unit of presentation)')</span></td></tr></table></blockquote><hr/><blockquote><p class="res-header-id"><b>Generated Narrative: Medication #Candesartan</b></p><a name="MedStatCandesartan/Candesartan"> </a><a name="hcMedStatCandesartan/Candesartan"> </a><a name="MedStatCandesartan/Candesartan-en-US"> </a><div style="display: inline-block; background-color: #d9e0e7; padding: 6px; margin: 4px; border: 1px solid #8da1b4; border-radius: 5px; line-height: 60%"><p style="margin-bottom: 0px"/><p style="margin-bottom: 0px">Profile: <a href="StructureDefinition-ch-ips-medication.html">CH IPS Medication</a></p></div><p><b>code</b>: <span title="Codes:{urn:oid:2.51.1.1 7680676560027}">CANDESARTAN-AMLODIP Mepha Kaps 8mg/5mg</span></p><p><b>form</b>: <span title="Codes:{urn:oid:0.4.0.127.0.16.1.1.2.1 10210000}">Hartkapsel</span></p><p><b>amount</b>: 98 Capsule (unit of presentation)<span style="background: LightGoldenRodYellow"> (Details: SNOMED CT  code732937005 = 'Capsule (unit of presentation)')</span>/1 Package - unit of product usage (qualifier value)<span style="background: LightGoldenRodYellow"> (Details: SNOMED CT  code1681000175101 = 'Package - unit of product usage')</span></p></blockquote></div>
        </text>
        <contained>
          <Medication>
            <id value="Candesartan"/>
            <meta>
              <profile value="http://fhir.ch/ig/ch-ips/StructureDefinition/ch-ips-medication"/>
            </meta>
            <code>
              <coding>
                <system value="urn:oid:2.51.1.1"/>
                <code value="7680676560027"/>
                <display value="CANDESARTAN-AMLODIP Mepha Kaps 8mg/5mg (Blister 98 Stk)"/>
              </coding>
              <text value="CANDESARTAN-AMLODIP Mepha Kaps 8mg/5mg"/>
            </code>
            <form>
              <coding>
                <system value="urn:oid:0.4.0.127.0.16.1.1.2.1"/>
                <code value="10210000"/>
                <display value="Capsule, hard"/>
              </coding>
              <text value="Hartkapsel"/>
            </form>
            <amount>
              <numerator>
                <value value="98"/>
                <unit value="Capsule (unit of presentation)"/>
                <system value="http://snomed.info/sct"/>
                <code value="732937005"/>
              </numerator>
              <denominator>
                <value value="1"/>
                <unit value="Package - unit of product usage (qualifier value)"/>
                <system value="http://snomed.info/sct"/>
                <code value="1681000175101"/>
              </denominator>
            </amount>
          </Medication>
        </contained>
        <status value="active"/>
        <medicationReference>
          <reference value="#Candesartan"/>
        </medicationReference>
        <subject>
          <reference value="Patient/MonikaWegmueller"/>
        </subject>
        <effectivePeriod>
          <start value="2020-03-03"/>
        </effectivePeriod>
        <reasonCode>
          <text value="Hypertonie"/>
        </reasonCode>
        <dosage>
          <patientInstruction value="Nehmen Sie die Kapseln täglich immer zur gleichen Tageszeit mit oder ohne Mahlzeit mit etwas Wasser ein."/>
          <timing>
            <repeat>
              <boundsPeriod>
                <start value="2020-03-03"/>
              </boundsPeriod>
              <when value="MORN"/>
            </repeat>
          </timing>
          <route>
            <coding>
              <system value="urn:oid:0.4.0.127.0.16.1.1.2.1"/>
              <code value="20053000"/>
              <display value="Oral use"/>
            </coding>
            <text value="zum Einnehmen"/>
          </route>
          <doseAndRate>
            <doseQuantity>
              <value value="1"/>
              <unit value="Tablet (unit of presentation)"/>
              <system value="http://snomed.info/sct"/>
              <code value="732936001"/>
            </doseQuantity>
          </doseAndRate>
        </dosage>
      </MedicationStatement>
    </resource>
  </entry>
  <entry>
    <fullUrl value="http://test.fhir.ch/r4/Condition/DiabetesMellitus"/>
    <resource>
      <Condition>
        <id value="DiabetesMellitus"/>
        <meta>
          <profile value="http://fhir.ch/ig/ch-ips/StructureDefinition/ch-ips-condition"/>
        </meta>
        <text>
          <status value="generated"/><div xmlns="http://www.w3.org/1999/xhtml"><a name="Condition_DiabetesMellitus"> </a><p class="res-header-id"><b>Generated Narrative: Condition DiabetesMellitus</b></p><a name="DiabetesMellitus"> </a><a name="hcDiabetesMellitus"> </a><a name="DiabetesMellitus-en-US"> </a><div style="display: inline-block; background-color: #d9e0e7; padding: 6px; margin: 4px; border: 1px solid #8da1b4; border-radius: 5px; line-height: 60%"><p style="margin-bottom: 0px"/><p style="margin-bottom: 0px">Profile: <a href="StructureDefinition-ch-ips-condition.html">CH IPS Condition</a></p></div><p><b>clinicalStatus</b>: <span title="Codes:{http://terminology.hl7.org/CodeSystem/condition-clinical active}">Active</span></p><p><b>verificationStatus</b>: <span title="Codes:{http://terminology.hl7.org/CodeSystem/condition-ver-status confirmed}">Confirmed</span></p><p><b>category</b>: <span title="Codes:{http://terminology.hl7.org/CodeSystem/condition-category problem-list-item}">Problem List Item</span></p><p><b>severity</b>: <span title="Codes:{http://snomed.info/sct 6736007}">Moderate (severity modifier) (qualifier value)</span></p><p><b>code</b>: <span title="Codes:{http://snomed.info/sct 44054006}">Diabetes mellitus type 2 (disorder)</span></p><p><b>subject</b>: <a href="Patient-MonikaWegmueller.html">Monika Wegmüller  Female, DoB: 1943-05-15 ( Medical record number: 11111111)</a></p></div>
        </text>
        <clinicalStatus>
          <coding>
            <system value="http://terminology.hl7.org/CodeSystem/condition-clinical"/>
            <code value="active"/>
            <display value="Active"/>
          </coding>
        </clinicalStatus>
        <verificationStatus>
          <coding>
            <system value="http://terminology.hl7.org/CodeSystem/condition-ver-status"/>
            <code value="confirmed"/>
            <display value="Confirmed"/>
          </coding>
        </verificationStatus>
        <category>
          <coding>
            <system value="http://terminology.hl7.org/CodeSystem/condition-category"/>
            <code value="problem-list-item"/>
            <display value="Problem List Item"/>
          </coding>
        </category>
        <severity>
          <coding>
            <system value="http://snomed.info/sct"/>
            <code value="6736007"/>
            <display value="Moderate (severity modifier) (qualifier value)"/>
          </coding>
        </severity>
        <code>
          <coding>
            <system value="http://snomed.info/sct"/>
            <code value="44054006"/>
            <display value="Diabetes mellitus type 2 (disorder)"/>
          </coding>
        </code>
        <subject>
          <reference value="Patient/MonikaWegmueller"/>
        </subject>
      </Condition>
    </resource>
  </entry>
  <entry>
    <fullUrl value="http://test.fhir.ch/r4/Condition/HighBloodPressure"/>
    <resource>
      <Condition>
        <id value="HighBloodPressure"/>
        <meta>
          <profile value="http://fhir.ch/ig/ch-ips/StructureDefinition/ch-ips-condition"/>
        </meta>
        <text>
          <status value="generated"/><div xmlns="http://www.w3.org/1999/xhtml"><a name="Condition_HighBloodPressure"> </a><p class="res-header-id"><b>Generated Narrative: Condition HighBloodPressure</b></p><a name="HighBloodPressure"> </a><a name="hcHighBloodPressure"> </a><a name="HighBloodPressure-en-US"> </a><div style="display: inline-block; background-color: #d9e0e7; padding: 6px; margin: 4px; border: 1px solid #8da1b4; border-radius: 5px; line-height: 60%"><p style="margin-bottom: 0px"/><p style="margin-bottom: 0px">Profile: <a href="StructureDefinition-ch-ips-condition.html">CH IPS Condition</a></p></div><p><b>clinicalStatus</b>: <span title="Codes:{http://terminology.hl7.org/CodeSystem/condition-clinical active}">Active</span></p><p><b>verificationStatus</b>: <span title="Codes:{http://terminology.hl7.org/CodeSystem/condition-ver-status confirmed}">Confirmed</span></p><p><b>category</b>: <span title="Codes:{http://terminology.hl7.org/CodeSystem/condition-category problem-list-item}">Problem List Item</span></p><p><b>severity</b>: <span title="Codes:{http://snomed.info/sct 6736007}">Moderate (severity modifier) (qualifier value)</span></p><p><b>code</b>: <span title="Codes:{http://snomed.info/sct 38341003}">Hypertensive disorder, systemic arterial (disorder)</span></p><p><b>subject</b>: <a href="Patient-MonikaWegmueller.html">Monika Wegmüller  Female, DoB: 1943-05-15 ( Medical record number: 11111111)</a></p></div>
        </text>
        <clinicalStatus>
          <coding>
            <system value="http://terminology.hl7.org/CodeSystem/condition-clinical"/>
            <code value="active"/>
            <display value="Active"/>
          </coding>
        </clinicalStatus>
        <verificationStatus>
          <coding>
            <system value="http://terminology.hl7.org/CodeSystem/condition-ver-status"/>
            <code value="confirmed"/>
            <display value="Confirmed"/>
          </coding>
        </verificationStatus>
        <category>
          <coding>
            <system value="http://terminology.hl7.org/CodeSystem/condition-category"/>
            <code value="problem-list-item"/>
            <display value="Problem List Item"/>
          </coding>
        </category>
        <severity>
          <coding>
            <system value="http://snomed.info/sct"/>
            <code value="6736007"/>
            <display value="Moderate (severity modifier) (qualifier value)"/>
          </coding>
        </severity>
        <code>
          <coding>
            <system value="http://snomed.info/sct"/>
            <code value="38341003"/>
            <display value="Hypertensive disorder, systemic arterial (disorder)"/>
          </coding>
        </code>
        <subject>
          <reference value="Patient/MonikaWegmueller"/>
        </subject>
      </Condition>
    </resource>
  </entry>
  <entry>
    <fullUrl value="http://test.fhir.ch/r4/Condition/CoronaryHeartDisease"/>
    <resource>
      <Condition>
        <id value="CoronaryHeartDisease"/>
        <meta>
          <profile value="http://fhir.ch/ig/ch-ips/StructureDefinition/ch-ips-condition"/>
        </meta>
        <text>
          <status value="generated"/><div xmlns="http://www.w3.org/1999/xhtml"><a name="Condition_CoronaryHeartDisease"> </a><p class="res-header-id"><b>Generated Narrative: Condition CoronaryHeartDisease</b></p><a name="CoronaryHeartDisease"> </a><a name="hcCoronaryHeartDisease"> </a><a name="CoronaryHeartDisease-en-US"> </a><div style="display: inline-block; background-color: #d9e0e7; padding: 6px; margin: 4px; border: 1px solid #8da1b4; border-radius: 5px; line-height: 60%"><p style="margin-bottom: 0px"/><p style="margin-bottom: 0px">Profile: <a href="StructureDefinition-ch-ips-condition.html">CH IPS Condition</a></p></div><p><b>clinicalStatus</b>: <span title="Codes:{http://terminology.hl7.org/CodeSystem/condition-clinical active}">Active</span></p><p><b>verificationStatus</b>: <span title="Codes:{http://terminology.hl7.org/CodeSystem/condition-ver-status confirmed}">Confirmed</span></p><p><b>category</b>: <span title="Codes:{http://terminology.hl7.org/CodeSystem/condition-category problem-list-item}">Problem List Item</span></p><p><b>severity</b>: <span title="Codes:{http://snomed.info/sct 6736007}">Moderate (severity modifier) (qualifier value)</span></p><p><b>code</b>: <span title="Codes:{http://snomed.info/sct 53741008}">Coronary arteriosclerosis (disorder)</span></p><p><b>subject</b>: <a href="Patient-MonikaWegmueller.html">Monika Wegmüller  Female, DoB: 1943-05-15 ( Medical record number: 11111111)</a></p></div>
        </text>
        <clinicalStatus>
          <coding>
            <system value="http://terminology.hl7.org/CodeSystem/condition-clinical"/>
            <code value="active"/>
            <display value="Active"/>
          </coding>
        </clinicalStatus>
        <verificationStatus>
          <coding>
            <system value="http://terminology.hl7.org/CodeSystem/condition-ver-status"/>
            <code value="confirmed"/>
            <display value="Confirmed"/>
          </coding>
        </verificationStatus>
        <category>
          <coding>
            <system value="http://terminology.hl7.org/CodeSystem/condition-category"/>
            <code value="problem-list-item"/>
            <display value="Problem List Item"/>
          </coding>
        </category>
        <severity>
          <coding>
            <system value="http://snomed.info/sct"/>
            <code value="6736007"/>
            <display value="Moderate (severity modifier) (qualifier value)"/>
          </coding>
        </severity>
        <code>
          <coding>
            <system value="http://snomed.info/sct"/>
            <code value="53741008"/>
            <display value="Coronary arteriosclerosis (disorder)"/>
          </coding>
        </code>
        <subject>
          <reference value="Patient/MonikaWegmueller"/>
        </subject>
      </Condition>
    </resource>
  </entry>
  <entry>
    <fullUrl value="http://test.fhir.ch/r4/Procedure/StentPlacement"/>
    <resource>
      <Procedure>
        <id value="StentPlacement"/>
        <meta>
          <profile value="http://hl7.org/fhir/uv/ips/StructureDefinition/Procedure-uv-ips"/>
        </meta>
        <text>
          <status value="generated"/><div xmlns="http://www.w3.org/1999/xhtml"><a name="Procedure_StentPlacement"> </a><p class="res-header-id"><b>Generated Narrative: Procedure StentPlacement</b></p><a name="StentPlacement"> </a><a name="hcStentPlacement"> </a><a name="StentPlacement-en-US"> </a><div style="display: inline-block; background-color: #d9e0e7; padding: 6px; margin: 4px; border: 1px solid #8da1b4; border-radius: 5px; line-height: 60%"><p style="margin-bottom: 0px"/><p style="margin-bottom: 0px">Profile: <a href="http://hl7.org/fhir/uv/ips/2024Sep/StructureDefinition-Procedure-uv-ips.html">Procedure (IPS)</a></p></div><p><b>status</b>: Completed</p><p><b>code</b>: <span title="Codes:{http://snomed.info/sct 36969009}">Placement of stent in coronary artery (procedure)</span></p><p><b>subject</b>: <a href="Patient-MonikaWegmueller.html">Monika Wegmüller  Female, DoB: 1943-05-15 ( Medical record number: 11111111)</a></p><p><b>performed</b>: 2022-09-27</p><p><b>reasonCode</b>: <span title="Codes:">Koronare Herzkrankheit</span></p><p><b>reasonReference</b>: <a href="Condition-CoronaryHeartDisease.html">Condition Coronary arteriosclerosis (disorder)</a></p></div>
        </text>
        <status value="completed"/>
        <code>
          <coding>
            <system value="http://snomed.info/sct"/>
            <code value="36969009"/>
            <display value="Placement of stent in coronary artery (procedure)"/>
          </coding>
        </code>
        <subject>
          <reference value="Patient/MonikaWegmueller"/>
        </subject>
        <performedDateTime value="2022-09-27"/>
        <reasonCode>
          <text value="Koronare Herzkrankheit"/>
        </reasonCode>
        <reasonReference>
          <reference value="Condition/CoronaryHeartDisease"/>
        </reasonReference>
      </Procedure>
    </resource>
  </entry>
</Bundle>