{
  "resourceType" : "Bundle",
  "id" : "a69ea53d-79d4-46f4-bd2e-7a71439f148f",
  "meta" : {
    "profile" : ["http://fhir.ch/ig/ch-epl/StructureDefinition/ch-idmp-bundle"]
  },
  "type" : "collection",
  "entry" : [{
    "fullUrl" : "http://fhir.epl.bag.admin.ch/CHIDMPMedicinalProductDefinition/Paxlovid-Filmcoatedtablet",
    "resource" : {
      "resourceType" : "MedicinalProductDefinition",
      "id" : "Paxlovid-Filmcoatedtablet",
      "meta" : {
        "profile" : ["http://fhir.ch/ig/ch-epl/StructureDefinition/ch-idmp-medicinalproductdefinition"]
      },
      "text" : {
        "status" : "extensions",
        "div" : "<div xmlns=\"http://www.w3.org/1999/xhtml\"><a name=\"MedicinalProductDefinition_Paxlovid-Filmcoatedtablet\"> </a><p class=\"res-header-id\"><b>Generated Narrative: MedicinalProductDefinition Paxlovid-Filmcoatedtablet</b></p><a name=\"Paxlovid-Filmcoatedtablet\"> </a><a name=\"hcPaxlovid-Filmcoatedtablet\"> </a><div style=\"display: inline-block; background-color: #d9e0e7; padding: 6px; margin: 4px; border: 1px solid #8da1b4; border-radius: 5px; line-height: 60%\"><p style=\"margin-bottom: 0px\"/><p style=\"margin-bottom: 0px\">Profile: <a href=\"StructureDefinition-ch-idmp-medicinalproductdefinition.html\">IDMP MedicinalProductDefinition</a></p></div><p><b>CH - SMC Authorized Dose Form</b>: <span title=\"Codes:{http://standardterms.edqm.eu 10221000}\">Film-coated tablet</span></p><p><b>CH - EPL Full Limitation Text</b>: Befristete Limitation bis 31.12.2025. PAXLOVID wird als antivirale Monotherapie für die Behandlung einer bestätigten Covid-19 Infektion (Positiver Erregernachweis Antigen/PCR und vorhandener Covid-19-Symptome) in folgenden Fällen vergütet:\n • in einer Dosierung von 300 mg Nirmatrelvir (zwei Tabletten zu je 150 mg) und 100 mg Ritonavir (eine Tablette zu 100 mg) zur gleichzeitigen Einnahme alle 12 Stunden, über einen Zeitraum von 5 Tagen\n • zur Frühbehandlung (ausser bei immunsupprimierten Personen vorzugsweise innerhalb von 5 Tagen nach Symptombeginn) bei Erwachsenen, die keine Sauerstofftherapie oder Hospitalisierung aufgrund von COVID-19 benötigen und für welche gemäss der aktuell gültigen Kriterienliste der Schweizerischen Gesellschaft für Infektiologie (SSI) (https://www.bag.admin.ch/bag/de/home/medizin-und-forschung/heilmittel/versorgung-covid-19-arzneimittel.html) ein erhöhtes Risiko für einen schweren COVID-19-Verlauf besteht.</p><p><b>identifier</b>: <a href=\"NamingSystem-MPID.html\" title=\"Temporary Identifier in this implementation guide until officially released by Swissmedic\">Medical Product Identifier</a>/CH-7601001010604-6879301</p><p><b>indication</b>: </p><div><p>Paxlovid wird angewendet für die Behandlung der Coronavirus-Krankheit 2019 (COVID-19) bei Erwachsenen, die keine Sauerstofftherapie oder Hospitalisierung aufgrund von COVID-19 benötigen und bei denen ein erhöhtes Risiko für einen schweren Verlauf von COVID-19 besteht (siehe «Klinische Wirksamkeit»).\nPaxlovid ist nicht als Ersatz für eine Impfung gegen COVID-19 vorgesehen. Paxlovid sollte gemäss den offiziellen Empfehlungen und unter Berücksichtigung der lokalen epidemiologischen Daten zu zirkulierenden SARS-CoV-2-Varianten angewendet werden.</p>\n</div><p><b>legalStatusOfSupply</b>: <span title=\"Codes:{http://fhir.ch/ig/ch-epl/CodeSystem/ch-SMC-legal-status-of-supply 756005022002}\">Medicinal product subject to medical or veterinary prescription single dispensation (A+)</span></p><p><b>additionalMonitoringIndicator</b>: <span title=\"Codes:{http://fhir.ch/ig/ch-epl/CodeSystem/ch-SMC-additional-monitoring-indicator 756005001001}\">Black Triangle Warning</span></p><p><b>pediatricUseIndicator</b>: <span title=\"Codes:{http://fhir.ch/ig/ch-epl/CodeSystem/ch-SMC-pediatric-use-indicator 756005003002}\">Not authorised for the treatment in children</span></p><p><b>classification</b>: <span title=\"Codes:{http://www.whocc.no/atc J05AE}\">Protease inhibitors</span>, <span title=\"Codes:{http://fhir.ch/ig/ch-epl/CodeSystem/ch-SMC-authorisation-category 756005021001}\">NA KAS art. 12 para. 5 TPLO</span>, <span title=\"Codes:{http://fhir.ch/ig/ch-epl/CodeSystem/ch-SMC-therapeuticproductcode 756005004001}\">Synthetic</span>, <span title=\"Codes:{http://fhir.ch/ig/ch-epl/CodeSystem/ch-epl-foph-product-type 756001003002}\">Originator product</span>, <span title=\"Codes:{http://fhir.ch/ig/ch-epl/CodeSystem/ch-epl-foph-index-therapeuticus 080000}, {http://fhir.ch/ig/ch-epl/CodeSystem/ch-epl-foph-index-therapeuticus 080300}\">08. INFEKTIONSKRANKHEITEN</span></p><p><b>attachedDocument</b>: </p><ul><li><a href=\"DocumentReference-DocRef-FI-Paxlovid.html\">DocumentReference: identifier = http://fhir.ch/ig/ch-epl/sid/attno#Application / Assessment Tracking Number#123456789-initial submission-Example-nop-123; status = current; type = Fachinformation; date = 2024-07-01 00:00:00+0000</a></li><li><a href=\"DocumentReference-DocRef-PI-Paxlovid.html\">DocumentReference: identifier = http://fhir.ch/ig/ch-epl/sid/attno#Application / Assessment Tracking Number#123456789-initial submission-Example-nop-321; status = current; type = Patienteninformation; date = 2024-07-01 00:00:00+0000</a></li></ul><blockquote><p><b>name</b></p><p><b>productName</b>: PAXLOVID Filmtabl 4x150mg/2x100mg</p><p><b>type</b>: <span title=\"Codes:{http://fhir.ch/ig/ch-epl/CodeSystem/ch-medicinal-product-name-type SMC}\">Zugelassener Arzneimittelname</span></p><h3>Usages</h3><table class=\"grid\"><tr><td style=\"display: none\">-</td><td><b>Country</b></td><td><b>Language</b></td></tr><tr><td style=\"display: none\">*</td><td><span title=\"Codes:{urn:iso:std:iso:3166 CH}\">Switzerland</span></td><td><span title=\"Codes:{urn:ietf:bcp:47 de-CH}\">German (Switzerland)</span></td></tr></table></blockquote></div>"
      },
      "extension" : [{
        "url" : "http://fhir.ch/ig/ch-epl/StructureDefinition/authorizedDoseForm",
        "valueCodeableConcept" : {
          "coding" : [{
            "system" : "http://standardterms.edqm.eu",
            "code" : "10221000",
            "display" : "Film-coated tablet"
          }]
        }
      },
      {
        "url" : "http://fhir.ch/ig/ch-epl/StructureDefinition/fullLimitationText",
        "valueString" : "Befristete Limitation bis 31.12.2025. PAXLOVID wird als antivirale Monotherapie für die Behandlung einer bestätigten Covid-19 Infektion (Positiver Erregernachweis Antigen/PCR und vorhandener Covid-19-Symptome) in folgenden Fällen vergütet:\n • in einer Dosierung von 300 mg Nirmatrelvir (zwei Tabletten zu je 150 mg) und 100 mg Ritonavir (eine Tablette zu 100 mg) zur gleichzeitigen Einnahme alle 12 Stunden, über einen Zeitraum von 5 Tagen\n • zur Frühbehandlung (ausser bei immunsupprimierten Personen vorzugsweise innerhalb von 5 Tagen nach Symptombeginn) bei Erwachsenen, die keine Sauerstofftherapie oder Hospitalisierung aufgrund von COVID-19 benötigen und für welche gemäss der aktuell gültigen Kriterienliste der Schweizerischen Gesellschaft für Infektiologie (SSI) (https://www.bag.admin.ch/bag/de/home/medizin-und-forschung/heilmittel/versorgung-covid-19-arzneimittel.html) ein erhöhtes Risiko für einen schweren COVID-19-Verlauf besteht."
      }],
      "identifier" : [{
        "system" : "http://fhir.ch/ig/ch-epl/sid/mpid",
        "value" : "CH-7601001010604-6879301"
      }],
      "indication" : "Paxlovid wird angewendet für die Behandlung der Coronavirus-Krankheit 2019 (COVID-19) bei Erwachsenen, die keine Sauerstofftherapie oder Hospitalisierung aufgrund von COVID-19 benötigen und bei denen ein erhöhtes Risiko für einen schweren Verlauf von COVID-19 besteht (siehe «Klinische Wirksamkeit»).\nPaxlovid ist nicht als Ersatz für eine Impfung gegen COVID-19 vorgesehen. Paxlovid sollte gemäss den offiziellen Empfehlungen und unter Berücksichtigung der lokalen epidemiologischen Daten zu zirkulierenden SARS-CoV-2-Varianten angewendet werden.",
      "legalStatusOfSupply" : {
        "coding" : [{
          "system" : "http://fhir.ch/ig/ch-epl/CodeSystem/ch-SMC-legal-status-of-supply",
          "code" : "756005022002",
          "display" : "Medicinal product subject to medical or veterinary prescription single dispensation (A+)"
        }]
      },
      "additionalMonitoringIndicator" : {
        "coding" : [{
          "system" : "http://fhir.ch/ig/ch-epl/CodeSystem/ch-SMC-additional-monitoring-indicator",
          "code" : "756005001001",
          "display" : "Black Triangle Warning"
        }]
      },
      "pediatricUseIndicator" : {
        "coding" : [{
          "system" : "http://fhir.ch/ig/ch-epl/CodeSystem/ch-SMC-pediatric-use-indicator",
          "code" : "756005003002",
          "display" : "Not authorised for the treatment in children"
        }]
      },
      "classification" : [{
        "coding" : [{
          "system" : "http://www.whocc.no/atc",
          "code" : "J05AE"
        }]
      },
      {
        "coding" : [{
          "system" : "http://fhir.ch/ig/ch-epl/CodeSystem/ch-SMC-authorisation-category",
          "code" : "756005021001",
          "display" : "NA KAS art. 12 para. 5 TPLO"
        }]
      },
      {
        "coding" : [{
          "system" : "http://fhir.ch/ig/ch-epl/CodeSystem/ch-SMC-therapeuticproductcode",
          "code" : "756005004001",
          "display" : "Synthetic"
        }]
      },
      {
        "coding" : [{
          "system" : "http://fhir.ch/ig/ch-epl/CodeSystem/ch-epl-foph-product-type",
          "code" : "756001003002",
          "display" : "Originator product"
        }]
      },
      {
        "coding" : [{
          "system" : "http://fhir.ch/ig/ch-epl/CodeSystem/ch-epl-foph-index-therapeuticus",
          "code" : "080000",
          "display" : "08. INFEKTIONSKRANKHEITEN"
        },
        {
          "system" : "http://fhir.ch/ig/ch-epl/CodeSystem/ch-epl-foph-index-therapeuticus",
          "code" : "080300",
          "display" : "08.03. Mittel gegen Viren"
        }]
      }],
      "attachedDocument" : [{
        "reference" : "DocumentReference/DocRef-FI-Paxlovid"
      },
      {
        "reference" : "DocumentReference/DocRef-PI-Paxlovid"
      }],
      "name" : [{
        "productName" : "PAXLOVID Filmtabl 4x150mg/2x100mg",
        "type" : {
          "coding" : [{
            "system" : "http://fhir.ch/ig/ch-epl/CodeSystem/ch-medicinal-product-name-type",
            "code" : "SMC",
            "display" : "Zugelassener Arzneimittelname"
          }]
        },
        "usage" : [{
          "country" : {
            "coding" : [{
              "system" : "urn:iso:std:iso:3166",
              "code" : "CH",
              "display" : "Switzerland"
            }]
          },
          "language" : {
            "coding" : [{
              "system" : "urn:ietf:bcp:47",
              "code" : "de-CH",
              "display" : "German (Switzerland)"
            }]
          }
        }]
      }]
    }
  },
  {
    "fullUrl" : "http://fhir.epl.bag.admin.ch/CHIDMPDocumentReference/DocRef-FI-Paxlovid",
    "resource" : {
      "resourceType" : "DocumentReference",
      "id" : "DocRef-FI-Paxlovid",
      "meta" : {
        "profile" : ["http://fhir.ch/ig/ch-epl/StructureDefinition/ch-idmp-documentreference"]
      },
      "language" : "de-CH",
      "text" : {
        "status" : "generated",
        "div" : "<div xmlns=\"http://www.w3.org/1999/xhtml\" xml:lang=\"de-CH\" lang=\"de-CH\"><a name=\"DocumentReference_DocRef-FI-Paxlovid\"> </a><p class=\"res-header-id\"><b>Generated Narrative: DocumentReference DocRef-FI-Paxlovid</b></p><a name=\"DocRef-FI-Paxlovid\"> </a><a name=\"hcDocRef-FI-Paxlovid\"> </a><div style=\"display: inline-block; background-color: #d9e0e7; padding: 6px; margin: 4px; border: 1px solid #8da1b4; border-radius: 5px; line-height: 60%\"><p style=\"margin-bottom: 0px\">Language: de-CH</p><p style=\"margin-bottom: 0px\">Profile: <a href=\"StructureDefinition-ch-idmp-documentreference.html\">CH IDMP DocumentReference</a></p></div><p><b>identifier</b>: <a href=\"NamingSystem-AttNo.html\" title=\"Temporary Namingsystem in this implementation guide until officially released by Swissmedic\">Application / Assessment Tracking Number</a>/123456789-initial submission-Example-nop-123</p><p><b>status</b>: Current</p><p><b>type</b>: <span title=\"Codes:{http://fhir.ch/ig/ch-epl/CodeSystem/ch-SMC-attached-document-type 756005007001}\">Fachinformation</span></p><p><b>date</b>: 2024-07-01 00:00:00+0000</p><blockquote><p><b>content</b></p><h3>Attachments</h3><table class=\"grid\"><tr><td style=\"display: none\">-</td><td><b>Url</b></td></tr><tr><td style=\"display: none\">*</td><td><a href=\"https://swissmedicinfo.ch/showTextAccepted.aspx?textType=FI&amp;lang=DE&amp;authNr=68793&amp;supportMultipleResults=1\">https://swissmedicinfo.ch/showTextAccepted.aspx?textType=FI&amp;lang=DE&amp;authNr=68793&amp;supportMultipleResults=1</a></td></tr></table></blockquote></div>"
      },
      "identifier" : [{
        "system" : "http://fhir.ch/ig/ch-epl/sid/attno",
        "value" : "123456789-initial submission-Example-nop-123"
      }],
      "status" : "current",
      "type" : {
        "coding" : [{
          "system" : "http://fhir.ch/ig/ch-epl/CodeSystem/ch-SMC-attached-document-type",
          "code" : "756005007001",
          "display" : "Fachinformation"
        }]
      },
      "date" : "2024-07-01T00:00:00Z",
      "content" : [{
        "attachment" : {
          "url" : "https://swissmedicinfo.ch/showTextAccepted.aspx?textType=FI&lang=DE&authNr=68793&supportMultipleResults=1"
        }
      }]
    }
  },
  {
    "fullUrl" : "http://fhir.epl.bag.admin.ch/CHIDMPDocumentReference/DocRef-PI-Paxlovid",
    "resource" : {
      "resourceType" : "DocumentReference",
      "id" : "DocRef-PI-Paxlovid",
      "meta" : {
        "profile" : ["http://fhir.ch/ig/ch-epl/StructureDefinition/ch-idmp-documentreference"]
      },
      "language" : "de-CH",
      "text" : {
        "status" : "generated",
        "div" : "<div xmlns=\"http://www.w3.org/1999/xhtml\" xml:lang=\"de-CH\" lang=\"de-CH\"><a name=\"DocumentReference_DocRef-PI-Paxlovid\"> </a><p class=\"res-header-id\"><b>Generated Narrative: DocumentReference DocRef-PI-Paxlovid</b></p><a name=\"DocRef-PI-Paxlovid\"> </a><a name=\"hcDocRef-PI-Paxlovid\"> </a><div style=\"display: inline-block; background-color: #d9e0e7; padding: 6px; margin: 4px; border: 1px solid #8da1b4; border-radius: 5px; line-height: 60%\"><p style=\"margin-bottom: 0px\">Language: de-CH</p><p style=\"margin-bottom: 0px\">Profile: <a href=\"StructureDefinition-ch-idmp-documentreference.html\">CH IDMP DocumentReference</a></p></div><p><b>identifier</b>: <a href=\"NamingSystem-AttNo.html\" title=\"Temporary Namingsystem in this implementation guide until officially released by Swissmedic\">Application / Assessment Tracking Number</a>/123456789-initial submission-Example-nop-321</p><p><b>status</b>: Current</p><p><b>type</b>: <span title=\"Codes:{http://fhir.ch/ig/ch-epl/CodeSystem/ch-SMC-attached-document-type 756005007002}\">Patienteninformation</span></p><p><b>date</b>: 2024-07-01 00:00:00+0000</p><blockquote><p><b>content</b></p><h3>Attachments</h3><table class=\"grid\"><tr><td style=\"display: none\">-</td><td><b>Url</b></td></tr><tr><td style=\"display: none\">*</td><td><a href=\"https://swissmedicinfo.ch/showTextAccepted.aspx?textType=PI&amp;lang=DE&amp;authNr=68793&amp;supportMultipleResults=1\">https://swissmedicinfo.ch/showTextAccepted.aspx?textType=PI&amp;lang=DE&amp;authNr=68793&amp;supportMultipleResults=1</a></td></tr></table></blockquote></div>"
      },
      "identifier" : [{
        "system" : "http://fhir.ch/ig/ch-epl/sid/attno",
        "value" : "123456789-initial submission-Example-nop-321"
      }],
      "status" : "current",
      "type" : {
        "coding" : [{
          "system" : "http://fhir.ch/ig/ch-epl/CodeSystem/ch-SMC-attached-document-type",
          "code" : "756005007002",
          "display" : "Patienteninformation"
        }]
      },
      "date" : "2024-07-01T00:00:00Z",
      "content" : [{
        "attachment" : {
          "url" : "https://swissmedicinfo.ch/showTextAccepted.aspx?textType=PI&lang=DE&authNr=68793&supportMultipleResults=1"
        }
      }]
    }
  },
  {
    "fullUrl" : "http://fhir.epl.bag.admin.ch/CHIDMPRegulatedAuthorisation/MA-6879301",
    "resource" : {
      "resourceType" : "RegulatedAuthorization",
      "id" : "MA-6879301",
      "meta" : {
        "profile" : ["http://fhir.ch/ig/ch-epl/StructureDefinition/ch-idmp-regulatedauthorization"]
      },
      "text" : {
        "status" : "generated",
        "div" : "<div xmlns=\"http://www.w3.org/1999/xhtml\"><a name=\"RegulatedAuthorization_MA-6879301\"> </a><p class=\"res-header-id\"><b>Generated Narrative: RegulatedAuthorization MA-6879301</b></p><a name=\"MA-6879301\"> </a><a name=\"hcMA-6879301\"> </a><div style=\"display: inline-block; background-color: #d9e0e7; padding: 6px; margin: 4px; border: 1px solid #8da1b4; border-radius: 5px; line-height: 60%\"><p style=\"margin-bottom: 0px\"/><p style=\"margin-bottom: 0px\">Profile: <a href=\"StructureDefinition-ch-idmp-regulatedauthorization.html\">IDMP RegulatedAuthorization</a></p></div><p><b>identifier</b>: <a href=\"NamingSystem-AuthNo.html\" title=\"Temporary Identifier in this implementation guide until officially released by Swissmedic\">Marketing Authorisation Number</a>/6879301</p><p><b>subject</b>: <a href=\"MedicinalProductDefinition-Paxlovid-Filmcoatedtablet.html\">MedicinalProductDefinition: extension = Film-coated tablet,Befristete Limitation bis 31.12.2025. PAXLOVID wird als antivirale Monotherapie für die Behandlung einer bestätigten Covid-19 Infektion (Positiver Erregernachweis Antigen/PCR und vorhandener Covid-19-Symptome) in folgenden Fällen vergütet:\n • in einer Dosierung von 300 mg Nirmatrelvir (zwei Tabletten zu je 150 mg) und 100 mg Ritonavir (eine Tablette zu 100 mg) zur gleichzeitigen Einnahme alle 12 Stunden, über einen Zeitraum von 5 Tagen\n • zur Frühbehandlung (ausser bei immunsupprimierten Personen vorzugsweise innerhalb von 5 Tagen nach Symptombeginn) bei Erwachsenen, die keine Sauerstofftherapie oder Hospitalisierung aufgrund von COVID-19 benötigen und für welche gemäss der aktuell gültigen Kriterienliste der Schweizerischen Gesellschaft für Infektiologie (SSI) (https://www.bag.admin.ch/bag/de/home/medizin-und-forschung/heilmittel/versorgung-covid-19-arzneimittel.html) ein erhöhtes Risiko für einen schweren COVID-19-Verlauf besteht.; identifier = http://fhir.ch/ig/ch-epl/sid/mpid#Medical Product Identifier#CH-7601001010604-6879301; indication = Paxlovid wird angewendet für die Behandlung der Coronavirus-Krankheit 2019 (COVID-19) bei Erwachsenen, die keine Sauerstofftherapie oder Hospitalisierung aufgrund von COVID-19 benötigen und bei denen ein erhöhtes Risiko für einen schweren Verlauf von COVID-19 besteht (siehe «Klinische Wirksamkeit»).\nPaxlovid ist nicht als Ersatz für eine Impfung gegen COVID-19 vorgesehen. Paxlovid sollte gemäss den offiziellen Empfehlungen und unter Berücksichtigung der lokalen epidemiologischen Daten zu zirkulierenden SARS-CoV-2-Varianten angewendet werden.; legalStatusOfSupply = Medicinal product subject to medical or veterinary prescription single dispensation (A+); additionalMonitoringIndicator = Black Triangle Warning; pediatricUseIndicator = Not authorised for the treatment in children; classification = Protease inhibitors,NA KAS art. 12 para. 5 TPLO,Synthetic,Originator product,08. INFEKTIONSKRANKHEITEN</a></p><p><b>type</b>: <span title=\"Codes:{http://fhir.ch/ig/ch-epl/CodeSystem/ch-authorisation-type 756000002001}\">Marketing Authorisation</span></p><p><b>region</b>: <span title=\"Codes:{urn:iso:std:iso:3166 CH}\">Switzerland</span></p><p><b>status</b>: <span title=\"Codes:{http://fhir.ch/ig/ch-epl/CodeSystem/ch-SMC-authorisation-status 756005023002}\">limited authorisation</span></p><p><b>statusDate</b>: 2022-06-15</p><p><b>holder</b>: <a href=\"#hcMA-6879301/holder-Pfizer-AG\">Organization Pfizer AG</a></p><p><b>regulator</b>: <a href=\"#hcMA-6879301/regulator-SMC\">Organization SMC</a></p><hr/><blockquote><p class=\"res-header-id\"><b>Generated Narrative: Organization #holder-Pfizer-AG</b></p><a name=\"MA-6879301/holder-Pfizer-AG\"> </a><a name=\"hcMA-6879301/holder-Pfizer-AG\"> </a><div style=\"display: inline-block; background-color: #d9e0e7; padding: 6px; margin: 4px; border: 1px solid #8da1b4; border-radius: 5px; line-height: 60%\"><p style=\"margin-bottom: 0px\"/><p style=\"margin-bottom: 0px\">Profile: <a href=\"StructureDefinition-ch-epl-organization.html\">CH EPL Organization</a></p></div><p><b>identifier</b>: <a href=\"NamingSystem-LOC.html\" title=\"Identifier holding a number for LocID (Location Identifier of the European Medicines Agency - Organisation Management System OMS)\">LOC Identifier</a>/100015286, <a href=\"NamingSystem-GLN.html\" title=\"Identifier holding a number for GLN (Global Location Number)\">GLN Identifier</a>/7601001010604</p><p><b>name</b>: Pfizer AG</p></blockquote><hr/><blockquote><p class=\"res-header-id\"><b>Generated Narrative: Organization #regulator-SMC</b></p><a name=\"MA-6879301/regulator-SMC\"> </a><a name=\"hcMA-6879301/regulator-SMC\"> </a><div style=\"display: inline-block; background-color: #d9e0e7; padding: 6px; margin: 4px; border: 1px solid #8da1b4; border-radius: 5px; line-height: 60%\"><p style=\"margin-bottom: 0px\"/><p style=\"margin-bottom: 0px\">Profile: <a href=\"StructureDefinition-ch-epl-organization.html\">CH EPL Organization</a></p></div><p><b>identifier</b>: <a href=\"NamingSystem-LOC.html\" title=\"Identifier holding a number for LocID (Location Identifier of the European Medicines Agency - Organisation Management System OMS)\">LOC Identifier</a>/100010911, <a href=\"NamingSystem-GLN.html\" title=\"Identifier holding a number for GLN (Global Location Number)\">GLN Identifier</a>/7601001398511</p><p><b>name</b>: SMC</p></blockquote></div>"
      },
      "contained" : [{
        "resourceType" : "Organization",
        "id" : "holder-Pfizer-AG",
        "meta" : {
          "profile" : ["http://fhir.ch/ig/ch-epl/StructureDefinition/ch-epl-organization"]
        },
        "identifier" : [{
          "system" : "urn:oid:1.2.276.0.76",
          "value" : "100015286"
        },
        {
          "system" : "urn:oid:2.51.1.3",
          "value" : "7601001010604"
        }],
        "name" : "Pfizer AG"
      },
      {
        "resourceType" : "Organization",
        "id" : "regulator-SMC",
        "meta" : {
          "profile" : ["http://fhir.ch/ig/ch-epl/StructureDefinition/ch-epl-organization"]
        },
        "identifier" : [{
          "system" : "urn:oid:1.2.276.0.76",
          "value" : "100010911"
        },
        {
          "system" : "urn:oid:2.51.1.3",
          "value" : "7601001398511"
        }],
        "name" : "SMC"
      }],
      "identifier" : [{
        "system" : "http://fhir.ch/ig/ch-epl/sid/authno",
        "value" : "6879301"
      }],
      "subject" : [{
        "reference" : "MedicinalProductDefinition/Paxlovid-Filmcoatedtablet"
      }],
      "type" : {
        "coding" : [{
          "system" : "http://fhir.ch/ig/ch-epl/CodeSystem/ch-authorisation-type",
          "code" : "756000002001",
          "display" : "Marketing Authorisation"
        }]
      },
      "region" : [{
        "coding" : [{
          "system" : "urn:iso:std:iso:3166",
          "code" : "CH",
          "display" : "Switzerland"
        }]
      }],
      "status" : {
        "coding" : [{
          "system" : "http://fhir.ch/ig/ch-epl/CodeSystem/ch-SMC-authorisation-status",
          "code" : "756005023002",
          "display" : "limited authorisation"
        }]
      },
      "statusDate" : "2022-06-15",
      "holder" : {
        "reference" : "#holder-Pfizer-AG"
      },
      "regulator" : {
        "reference" : "#regulator-SMC"
      }
    }
  },
  {
    "fullUrl" : "http://fhir.epl.bag.admin.ch/CHIDMPPackagedProductDefinition/PMP-Paxlovid-Filmcoatedtablet",
    "resource" : {
      "resourceType" : "PackagedProductDefinition",
      "id" : "PMP-Paxlovid-Filmcoatedtablet",
      "meta" : {
        "profile" : ["http://fhir.ch/ig/ch-epl/StructureDefinition/ch-idmp-packagedproductdefinition"]
      },
      "text" : {
        "status" : "generated",
        "div" : "<div xmlns=\"http://www.w3.org/1999/xhtml\"><a name=\"PackagedProductDefinition_PMP-Paxlovid-Filmcoatedtablet\"> </a><p class=\"res-header-id\"><b>Generated Narrative: PackagedProductDefinition PMP-Paxlovid-Filmcoatedtablet</b></p><a name=\"PMP-Paxlovid-Filmcoatedtablet\"> </a><a name=\"hcPMP-Paxlovid-Filmcoatedtablet\"> </a><div style=\"display: inline-block; background-color: #d9e0e7; padding: 6px; margin: 4px; border: 1px solid #8da1b4; border-radius: 5px; line-height: 60%\"><p style=\"margin-bottom: 0px\"/><p style=\"margin-bottom: 0px\">Profile: <a href=\"StructureDefinition-ch-idmp-packagedproductdefinition.html\">IDMP PackagedProductDefinition</a></p></div><p><b>identifier</b>: <a href=\"NamingSystem-PCID.html\" title=\"Temporary Identifier in this implementation guide until officially released by Swissmedic\">Clinical Product Identifier</a>/CH-7601001010604-6879301-001</p><p><b>packageFor</b>: <a href=\"MedicinalProductDefinition-Paxlovid-Filmcoatedtablet.html\">MedicinalProductDefinition: extension = Film-coated tablet,Befristete Limitation bis 31.12.2025. PAXLOVID wird als antivirale Monotherapie für die Behandlung einer bestätigten Covid-19 Infektion (Positiver Erregernachweis Antigen/PCR und vorhandener Covid-19-Symptome) in folgenden Fällen vergütet:\n • in einer Dosierung von 300 mg Nirmatrelvir (zwei Tabletten zu je 150 mg) und 100 mg Ritonavir (eine Tablette zu 100 mg) zur gleichzeitigen Einnahme alle 12 Stunden, über einen Zeitraum von 5 Tagen\n • zur Frühbehandlung (ausser bei immunsupprimierten Personen vorzugsweise innerhalb von 5 Tagen nach Symptombeginn) bei Erwachsenen, die keine Sauerstofftherapie oder Hospitalisierung aufgrund von COVID-19 benötigen und für welche gemäss der aktuell gültigen Kriterienliste der Schweizerischen Gesellschaft für Infektiologie (SSI) (https://www.bag.admin.ch/bag/de/home/medizin-und-forschung/heilmittel/versorgung-covid-19-arzneimittel.html) ein erhöhtes Risiko für einen schweren COVID-19-Verlauf besteht.; identifier = http://fhir.ch/ig/ch-epl/sid/mpid#Medical Product Identifier#CH-7601001010604-6879301; indication = Paxlovid wird angewendet für die Behandlung der Coronavirus-Krankheit 2019 (COVID-19) bei Erwachsenen, die keine Sauerstofftherapie oder Hospitalisierung aufgrund von COVID-19 benötigen und bei denen ein erhöhtes Risiko für einen schweren Verlauf von COVID-19 besteht (siehe «Klinische Wirksamkeit»).\nPaxlovid ist nicht als Ersatz für eine Impfung gegen COVID-19 vorgesehen. Paxlovid sollte gemäss den offiziellen Empfehlungen und unter Berücksichtigung der lokalen epidemiologischen Daten zu zirkulierenden SARS-CoV-2-Varianten angewendet werden.; legalStatusOfSupply = Medicinal product subject to medical or veterinary prescription single dispensation (A+); additionalMonitoringIndicator = Black Triangle Warning; pediatricUseIndicator = Not authorised for the treatment in children; classification = Protease inhibitors,NA KAS art. 12 para. 5 TPLO,Synthetic,Originator product,08. INFEKTIONSKRANKHEITEN</a></p><p><b>containedItemQuantity</b>: 30 Tablet<span style=\"background: LightGoldenRodYellow\"> (Details: EDQM - Standard Terms  code15054000 = 'Tablet')</span></p><p><b>description</b>: </p><div><p>PAXLOVID Filmtabl 4x150mg/2x100mg</p>\n</div><h3>LegalStatusOfSupplies</h3><table class=\"grid\"><tr><td style=\"display: none\">-</td><td><b>Code</b></td></tr><tr><td style=\"display: none\">*</td><td><span title=\"Codes:{http://fhir.ch/ig/ch-epl/CodeSystem/ch-SMC-legal-status-of-supply 756005022002}\">Medicinal product subject to medical or veterinary prescription single dispensation (A+)</span></td></tr></table><blockquote><p><b>packaging</b></p><p><b>identifier</b>: <a href=\"NamingSystem-GTIN.html\" title=\"GS1 defines trade items as products or services that are priced, ordered or invoiced at any point in the supply chain.\">Global Trade Item Number</a>/7680687930017</p><p><b>type</b>: <span title=\"Codes:{http://standardterms.edqm.eu 30009000}\">Box</span></p><p><b>quantity</b>: 1</p><h3>ShelfLifeStorages</h3><table class=\"grid\"><tr><td style=\"display: none\">-</td><td><b>Type</b></td><td><b>SpecialPrecautionsForStorage</b></td></tr><tr><td style=\"display: none\">*</td><td><span title=\"Codes:{http://spor.ema.europa.eu/v1/lists/100000073343 100000073403}\">Shelf life of the medicinal product as packaged for sale</span></td><td><span title=\"Codes:{http://fhir.ch/ig/ch-epl/CodeSystem/ch-SMC-special-precautions-for-storage 756005042001}\">Do not freeze</span></td></tr></table></blockquote></div>"
      },
      "identifier" : [{
        "system" : "http://fhir.ch/ig/ch-epl/sid/pcid",
        "value" : "CH-7601001010604-6879301-001"
      }],
      "packageFor" : [{
        "reference" : "MedicinalProductDefinition/Paxlovid-Filmcoatedtablet"
      }],
      "containedItemQuantity" : [{
        "value" : 30,
        "unit" : "Tablet",
        "system" : "http://standardterms.edqm.eu",
        "code" : "15054000"
      }],
      "description" : "PAXLOVID Filmtabl 4x150mg/2x100mg",
      "legalStatusOfSupply" : [{
        "code" : {
          "coding" : [{
            "system" : "http://fhir.ch/ig/ch-epl/CodeSystem/ch-SMC-legal-status-of-supply",
            "code" : "756005022002",
            "display" : "Medicinal product subject to medical or veterinary prescription single dispensation (A+)"
          }]
        }
      }],
      "packaging" : {
        "identifier" : [{
          "system" : "urn:oid:2.51.1.1",
          "value" : "7680687930017"
        }],
        "type" : {
          "coding" : [{
            "system" : "http://standardterms.edqm.eu",
            "code" : "30009000",
            "display" : "Box"
          }]
        },
        "quantity" : 1,
        "shelfLifeStorage" : [{
          "type" : {
            "coding" : [{
              "system" : "http://spor.ema.europa.eu/v1/lists/100000073343",
              "code" : "100000073403",
              "display" : "Shelf life of the medicinal product as packaged for sale"
            }]
          },
          "specialPrecautionsForStorage" : [{
            "coding" : [{
              "system" : "http://fhir.ch/ig/ch-epl/CodeSystem/ch-SMC-special-precautions-for-storage",
              "code" : "756005042001",
              "display" : "Do not freeze"
            }]
          }]
        }]
      }
    }
  },
  {
    "fullUrl" : "http://fhir.epl.bag.admin.ch/CHIDMPRegulatedAuthorisation/MA-68793001",
    "resource" : {
      "resourceType" : "RegulatedAuthorization",
      "id" : "MA-68793001",
      "meta" : {
        "profile" : ["http://fhir.ch/ig/ch-epl/StructureDefinition/ch-idmp-regulatedauthorization"]
      },
      "text" : {
        "status" : "generated",
        "div" : "<div xmlns=\"http://www.w3.org/1999/xhtml\"><a name=\"RegulatedAuthorization_MA-68793001\"> </a><p class=\"res-header-id\"><b>Generated Narrative: RegulatedAuthorization MA-68793001</b></p><a name=\"MA-68793001\"> </a><a name=\"hcMA-68793001\"> </a><div style=\"display: inline-block; background-color: #d9e0e7; padding: 6px; margin: 4px; border: 1px solid #8da1b4; border-radius: 5px; line-height: 60%\"><p style=\"margin-bottom: 0px\"/><p style=\"margin-bottom: 0px\">Profile: <a href=\"StructureDefinition-ch-idmp-regulatedauthorization.html\">IDMP RegulatedAuthorization</a></p></div><p><b>identifier</b>: <a href=\"NamingSystem-AuthNo.html\" title=\"Temporary Identifier in this implementation guide until officially released by Swissmedic\">Marketing Authorisation Number</a>/68793001</p><p><b>subject</b>: <a href=\"MedicinalProductDefinition-Paxlovid-Filmcoatedtablet.html\">MedicinalProductDefinition: extension = Film-coated tablet,Befristete Limitation bis 31.12.2025. PAXLOVID wird als antivirale Monotherapie für die Behandlung einer bestätigten Covid-19 Infektion (Positiver Erregernachweis Antigen/PCR und vorhandener Covid-19-Symptome) in folgenden Fällen vergütet:\n • in einer Dosierung von 300 mg Nirmatrelvir (zwei Tabletten zu je 150 mg) und 100 mg Ritonavir (eine Tablette zu 100 mg) zur gleichzeitigen Einnahme alle 12 Stunden, über einen Zeitraum von 5 Tagen\n • zur Frühbehandlung (ausser bei immunsupprimierten Personen vorzugsweise innerhalb von 5 Tagen nach Symptombeginn) bei Erwachsenen, die keine Sauerstofftherapie oder Hospitalisierung aufgrund von COVID-19 benötigen und für welche gemäss der aktuell gültigen Kriterienliste der Schweizerischen Gesellschaft für Infektiologie (SSI) (https://www.bag.admin.ch/bag/de/home/medizin-und-forschung/heilmittel/versorgung-covid-19-arzneimittel.html) ein erhöhtes Risiko für einen schweren COVID-19-Verlauf besteht.; identifier = http://fhir.ch/ig/ch-epl/sid/mpid#Medical Product Identifier#CH-7601001010604-6879301; indication = Paxlovid wird angewendet für die Behandlung der Coronavirus-Krankheit 2019 (COVID-19) bei Erwachsenen, die keine Sauerstofftherapie oder Hospitalisierung aufgrund von COVID-19 benötigen und bei denen ein erhöhtes Risiko für einen schweren Verlauf von COVID-19 besteht (siehe «Klinische Wirksamkeit»).\nPaxlovid ist nicht als Ersatz für eine Impfung gegen COVID-19 vorgesehen. Paxlovid sollte gemäss den offiziellen Empfehlungen und unter Berücksichtigung der lokalen epidemiologischen Daten zu zirkulierenden SARS-CoV-2-Varianten angewendet werden.; legalStatusOfSupply = Medicinal product subject to medical or veterinary prescription single dispensation (A+); additionalMonitoringIndicator = Black Triangle Warning; pediatricUseIndicator = Not authorised for the treatment in children; classification = Protease inhibitors,NA KAS art. 12 para. 5 TPLO,Synthetic,Originator product,08. INFEKTIONSKRANKHEITEN</a></p><p><b>type</b>: <span title=\"Codes:{http://fhir.ch/ig/ch-epl/CodeSystem/ch-authorisation-type 756000002001}\">Marketing Authorisation</span></p><p><b>region</b>: <span title=\"Codes:{urn:iso:std:iso:3166 CH}\">Switzerland</span></p><p><b>status</b>: <span title=\"Codes:{http://fhir.ch/ig/ch-epl/CodeSystem/ch-SMC-authorisation-status 756005023002}\">limited authorisation</span></p><p><b>statusDate</b>: 2022-06-15</p><p><b>holder</b>: <a href=\"#hcMA-68793001/holder-Pfizer-AG\">Organization Pfizer AG</a></p><p><b>regulator</b>: <a href=\"#hcMA-68793001/regulator-SMC\">Organization SMC</a></p><hr/><blockquote><p class=\"res-header-id\"><b>Generated Narrative: Organization #holder-Pfizer-AG</b></p><a name=\"MA-68793001/holder-Pfizer-AG\"> </a><a name=\"hcMA-68793001/holder-Pfizer-AG\"> </a><div style=\"display: inline-block; background-color: #d9e0e7; padding: 6px; margin: 4px; border: 1px solid #8da1b4; border-radius: 5px; line-height: 60%\"><p style=\"margin-bottom: 0px\"/><p style=\"margin-bottom: 0px\">Profile: <a href=\"StructureDefinition-ch-epl-organization.html\">CH EPL Organization</a></p></div><p><b>identifier</b>: <a href=\"NamingSystem-LOC.html\" title=\"Identifier holding a number for LocID (Location Identifier of the European Medicines Agency - Organisation Management System OMS)\">LOC Identifier</a>/100015286, <a href=\"NamingSystem-GLN.html\" title=\"Identifier holding a number for GLN (Global Location Number)\">GLN Identifier</a>/7601001010604</p><p><b>name</b>: Pfizer AG</p></blockquote><hr/><blockquote><p class=\"res-header-id\"><b>Generated Narrative: Organization #regulator-SMC</b></p><a name=\"MA-68793001/regulator-SMC\"> </a><a name=\"hcMA-68793001/regulator-SMC\"> </a><div style=\"display: inline-block; background-color: #d9e0e7; padding: 6px; margin: 4px; border: 1px solid #8da1b4; border-radius: 5px; line-height: 60%\"><p style=\"margin-bottom: 0px\"/><p style=\"margin-bottom: 0px\">Profile: <a href=\"StructureDefinition-ch-epl-organization.html\">CH EPL Organization</a></p></div><p><b>identifier</b>: <a href=\"NamingSystem-LOC.html\" title=\"Identifier holding a number for LocID (Location Identifier of the European Medicines Agency - Organisation Management System OMS)\">LOC Identifier</a>/100010911, <a href=\"NamingSystem-GLN.html\" title=\"Identifier holding a number for GLN (Global Location Number)\">GLN Identifier</a>/7601001398511</p><p><b>name</b>: SMC</p></blockquote></div>"
      },
      "contained" : [{
        "resourceType" : "Organization",
        "id" : "holder-Pfizer-AG",
        "meta" : {
          "profile" : ["http://fhir.ch/ig/ch-epl/StructureDefinition/ch-epl-organization"]
        },
        "identifier" : [{
          "system" : "urn:oid:1.2.276.0.76",
          "value" : "100015286"
        },
        {
          "system" : "urn:oid:2.51.1.3",
          "value" : "7601001010604"
        }],
        "name" : "Pfizer AG"
      },
      {
        "resourceType" : "Organization",
        "id" : "regulator-SMC",
        "meta" : {
          "profile" : ["http://fhir.ch/ig/ch-epl/StructureDefinition/ch-epl-organization"]
        },
        "identifier" : [{
          "system" : "urn:oid:1.2.276.0.76",
          "value" : "100010911"
        },
        {
          "system" : "urn:oid:2.51.1.3",
          "value" : "7601001398511"
        }],
        "name" : "SMC"
      }],
      "identifier" : [{
        "system" : "http://fhir.ch/ig/ch-epl/sid/authno",
        "value" : "68793001"
      }],
      "subject" : [{
        "reference" : "MedicinalProductDefinition/Paxlovid-Filmcoatedtablet"
      }],
      "type" : {
        "coding" : [{
          "system" : "http://fhir.ch/ig/ch-epl/CodeSystem/ch-authorisation-type",
          "code" : "756000002001",
          "display" : "Marketing Authorisation"
        }]
      },
      "region" : [{
        "coding" : [{
          "system" : "urn:iso:std:iso:3166",
          "code" : "CH",
          "display" : "Switzerland"
        }]
      }],
      "status" : {
        "coding" : [{
          "system" : "http://fhir.ch/ig/ch-epl/CodeSystem/ch-SMC-authorisation-status",
          "code" : "756005023002",
          "display" : "limited authorisation"
        }]
      },
      "statusDate" : "2022-06-15",
      "holder" : {
        "reference" : "#holder-Pfizer-AG"
      },
      "regulator" : {
        "reference" : "#regulator-SMC"
      }
    }
  },
  {
    "fullUrl" : "http://fhir.epl.bag.admin.ch/CHIDMPRegulatedAuthorisation/FOPH-21529",
    "resource" : {
      "resourceType" : "RegulatedAuthorization",
      "id" : "FOPH-21529",
      "text" : {
        "status" : "extensions",
        "div" : "<div xmlns=\"http://www.w3.org/1999/xhtml\"><a name=\"RegulatedAuthorization_FOPH-21529\"> </a><p class=\"res-header-id\"><b>Generated Narrative: RegulatedAuthorization FOPH-21529</b></p><a name=\"FOPH-21529\"> </a><a name=\"hcFOPH-21529\"> </a><blockquote><p><b>CH - EPL Reimbursement SL</b></p><ul><li>FOPHDossierNumber: <a href=\"NamingSystem-Dossier.html\" title=\"Identifier holding the Dossier number of FOPH\">FOPH Dossier Number</a>/21529</li><li>status: <span title=\"Codes:{http://fhir.ch/ig/ch-epl/CodeSystem/ch-epl-foph-reimbursement-status 756001021001}\">Reimbursed</span></li><li>statusDate: 2023-12-01</li><li>expiryDate: 2026-03-31</li><li>listingStatus: <span title=\"Codes:{http://fhir.ch/ig/ch-epl/CodeSystem/ch-epl-foph-listing-status 756001002001}\">Listed</span></li><li>listingPeriod: 2023-12-01 --&gt; 2025-12-31</li><li>firstListingDate: 2023-12-01</li><li>costShare: 10</li><li>gamme: <span title=\"Codes:{http://fhir.ch/ig/ch-epl/CodeSystem/ch-epl-foph-gamme 756002004001}\">Oral</span></li></ul></blockquote><blockquote><p><b>CH - EPL Product Price</b></p><ul><li>value: <span title=\"Swiss Franc\">CHF958.62</span> (CHF)</li><li>type: <span title=\"Codes:{http://fhir.ch/ig/ch-epl/CodeSystem/ch-epl-foph-price-type 756002005002}\">Ex-factory price</span></li><li>changeType: <span title=\"Codes:{http://fhir.ch/ig/ch-epl/CodeSystem/ch-epl-foph-type-of-price-change 756002006007}\">Price mutation after triennal review of pharmaceuticals</span></li><li>changeDate: 2023-12-01</li></ul></blockquote><blockquote><p><b>CH - EPL Product Price</b></p><ul><li>value: <span title=\"Swiss Franc\">CHF1,113.95</span> (CHF)</li><li>type: <span title=\"Codes:{http://fhir.ch/ig/ch-epl/CodeSystem/ch-epl-foph-price-type 756002005001}\">Retail price</span></li><li>changeType: <span title=\"Codes:{http://fhir.ch/ig/ch-epl/CodeSystem/ch-epl-foph-type-of-price-change 756002006005}\">VAT-change</span></li><li>changeDate: 2024-01-01</li></ul></blockquote><p><b>subject</b>: <a href=\"PackagedProductDefinition-PMP-Paxlovid-Filmcoatedtablet.html\">PackagedProductDefinition: identifier = http://fhir.ch/ig/ch-epl/sid/pcid#Clinical Product Identifier#CH-7601001010604-6879301-001; containedItemQuantity = 30 Tablet; description = PAXLOVID Filmtabl 4x150mg/2x100mg</a></p><p><b>type</b>: <span title=\"Codes:{http://fhir.ch/ig/ch-epl/CodeSystem/ch-authorisation-type 756000002003}\">Reimbursement SL</span></p><h3>Indications</h3><table class=\"grid\"><tr><td style=\"display: none\">-</td><td><b>Extension</b></td><td><b>Reference</b></td></tr><tr><td style=\"display: none\">*</td><td/><td><a href=\"ClinicalUseDefinition-IND-10084529.html\">ClinicalUseDefinition: type = indication</a></td></tr></table><p><b>holder</b>: <a href=\"#hcFOPH-21529/holder-Pfizer-AG\">Organization Pfizer AG</a></p><hr/><blockquote><p class=\"res-header-id\"><b>Generated Narrative: Organization #holder-Pfizer-AG</b></p><a name=\"FOPH-21529/holder-Pfizer-AG\"> </a><a name=\"hcFOPH-21529/holder-Pfizer-AG\"> </a><div style=\"display: inline-block; background-color: #d9e0e7; padding: 6px; margin: 4px; border: 1px solid #8da1b4; border-radius: 5px; line-height: 60%\"><p style=\"margin-bottom: 0px\"/><p style=\"margin-bottom: 0px\">Profile: <a href=\"StructureDefinition-ch-epl-organization.html\">CH EPL Organization</a></p></div><p><b>identifier</b>: <a href=\"NamingSystem-LOC.html\" title=\"Identifier holding a number for LocID (Location Identifier of the European Medicines Agency - Organisation Management System OMS)\">LOC Identifier</a>/100015286, <a href=\"NamingSystem-GLN.html\" title=\"Identifier holding a number for GLN (Global Location Number)\">GLN Identifier</a>/7601001010604</p><p><b>name</b>: Pfizer AG</p></blockquote></div>"
      },
      "contained" : [{
        "resourceType" : "Organization",
        "id" : "holder-Pfizer-AG",
        "meta" : {
          "profile" : ["http://fhir.ch/ig/ch-epl/StructureDefinition/ch-epl-organization"]
        },
        "identifier" : [{
          "system" : "urn:oid:1.2.276.0.76",
          "value" : "100015286"
        },
        {
          "system" : "urn:oid:2.51.1.3",
          "value" : "7601001010604"
        }],
        "name" : "Pfizer AG"
      }],
      "extension" : [{
        "extension" : [{
          "url" : "FOPHDossierNumber",
          "valueIdentifier" : {
            "system" : "urn:oid:2.16.756.1",
            "value" : "21529"
          }
        },
        {
          "url" : "status",
          "valueCodeableConcept" : {
            "coding" : [{
              "system" : "http://fhir.ch/ig/ch-epl/CodeSystem/ch-epl-foph-reimbursement-status",
              "code" : "756001021001",
              "display" : "Reimbursed"
            }]
          }
        },
        {
          "url" : "statusDate",
          "valueDate" : "2023-12-01"
        },
        {
          "url" : "expiryDate",
          "valueDate" : "2026-03-31"
        },
        {
          "url" : "listingStatus",
          "valueCodeableConcept" : {
            "coding" : [{
              "system" : "http://fhir.ch/ig/ch-epl/CodeSystem/ch-epl-foph-listing-status",
              "code" : "756001002001",
              "display" : "Listed"
            }]
          }
        },
        {
          "url" : "listingPeriod",
          "valuePeriod" : {
            "start" : "2023-12-01",
            "end" : "2025-12-31"
          }
        },
        {
          "url" : "firstListingDate",
          "valueDate" : "2023-12-01"
        },
        {
          "url" : "costShare",
          "valueInteger" : 10
        },
        {
          "url" : "gamme",
          "valueCodeableConcept" : {
            "coding" : [{
              "system" : "http://fhir.ch/ig/ch-epl/CodeSystem/ch-epl-foph-gamme",
              "code" : "756002004001",
              "display" : "Oral"
            }]
          }
        }],
        "url" : "http://fhir.ch/ig/ch-epl/StructureDefinition/reimbursementSL"
      },
      {
        "extension" : [{
          "url" : "value",
          "valueMoney" : {
            "value" : 958.62,
            "currency" : "CHF"
          }
        },
        {
          "url" : "type",
          "valueCodeableConcept" : {
            "coding" : [{
              "system" : "http://fhir.ch/ig/ch-epl/CodeSystem/ch-epl-foph-price-type",
              "code" : "756002005002",
              "display" : "Ex-factory price"
            }]
          }
        },
        {
          "url" : "changeType",
          "valueCodeableConcept" : {
            "coding" : [{
              "system" : "http://fhir.ch/ig/ch-epl/CodeSystem/ch-epl-foph-type-of-price-change",
              "code" : "756002006007",
              "display" : "Price mutation after triennal review of pharmaceuticals"
            }]
          }
        },
        {
          "url" : "changeDate",
          "valueDate" : "2023-12-01"
        }],
        "url" : "http://fhir.ch/ig/ch-epl/StructureDefinition/productPrice"
      },
      {
        "extension" : [{
          "url" : "value",
          "valueMoney" : {
            "value" : 1113.95,
            "currency" : "CHF"
          }
        },
        {
          "url" : "type",
          "valueCodeableConcept" : {
            "coding" : [{
              "system" : "http://fhir.ch/ig/ch-epl/CodeSystem/ch-epl-foph-price-type",
              "code" : "756002005001",
              "display" : "Retail price"
            }]
          }
        },
        {
          "url" : "changeType",
          "valueCodeableConcept" : {
            "coding" : [{
              "system" : "http://fhir.ch/ig/ch-epl/CodeSystem/ch-epl-foph-type-of-price-change",
              "code" : "756002006005",
              "display" : "VAT-change"
            }]
          }
        },
        {
          "url" : "changeDate",
          "valueDate" : "2024-01-01"
        }],
        "url" : "http://fhir.ch/ig/ch-epl/StructureDefinition/productPrice"
      }],
      "subject" : [{
        "reference" : "PackagedProductDefinition/PMP-Paxlovid-Filmcoatedtablet"
      }],
      "type" : {
        "coding" : [{
          "system" : "http://fhir.ch/ig/ch-epl/CodeSystem/ch-authorisation-type",
          "code" : "756000002003",
          "display" : "Reimbursement SL"
        }]
      },
      "indication" : [{
        "extension" : [{
          "extension" : [{
            "url" : "status",
            "valueCodeableConcept" : {
              "coding" : [{
                "system" : "http://fhir.ch/ig/ch-epl/CodeSystem/ch-epl-foph-limitationstatus",
                "code" : "756002071001",
                "display" : "Limitation Reimbursed"
              }]
            }
          },
          {
            "url" : "statusDate",
            "valueDate" : "2023-12-01"
          },
          {
            "url" : "period",
            "valuePeriod" : {
              "start" : "2023-12-01",
              "end" : "2025-12-31"
            }
          },
          {
            "url" : "reimbursementEndDate",
            "valueDate" : "2026-03-31"
          },
          {
            "url" : "firstLimitationDate",
            "valueDate" : "2023-12-01"
          },
          {
            "url" : "limitationIndication",
            "valueReference" : {
              "reference" : "ClinicalUseDefinition/LIM-840539006"
            }
          },
          {
            "extension" : [{
              "url" : "value",
              "valueMoney" : {
                "value" : 958.62,
                "currency" : "CHF"
              }
            },
            {
              "url" : "type",
              "valueCodeableConcept" : {
                "coding" : [{
                  "system" : "http://fhir.ch/ig/ch-epl/CodeSystem/ch-epl-foph-price-type",
                  "code" : "756002005002",
                  "display" : "Ex-factory price"
                }]
              }
            },
            {
              "url" : "changeType",
              "valueCodeableConcept" : {
                "coding" : [{
                  "system" : "http://fhir.ch/ig/ch-epl/CodeSystem/ch-epl-foph-type-of-price-change",
                  "code" : "756002006007",
                  "display" : "Price mutation after triennal review of pharmaceuticals"
                }]
              }
            },
            {
              "url" : "changeDate",
              "valueDate" : "2023-12-01"
            }],
            "url" : "http://fhir.ch/ig/ch-epl/StructureDefinition/productPrice"
          },
          {
            "extension" : [{
              "url" : "value",
              "valueMoney" : {
                "value" : 1113.95,
                "currency" : "CHF"
              }
            },
            {
              "url" : "type",
              "valueCodeableConcept" : {
                "coding" : [{
                  "system" : "http://fhir.ch/ig/ch-epl/CodeSystem/ch-epl-foph-price-type",
                  "code" : "756002005001",
                  "display" : "Retail price"
                }]
              }
            },
            {
              "url" : "changeType",
              "valueCodeableConcept" : {
                "coding" : [{
                  "system" : "http://fhir.ch/ig/ch-epl/CodeSystem/ch-epl-foph-type-of-price-change",
                  "code" : "756002006005",
                  "display" : "VAT-change"
                }]
              }
            },
            {
              "url" : "changeDate",
              "valueDate" : "2024-01-01"
            }],
            "url" : "http://fhir.ch/ig/ch-epl/StructureDefinition/productPrice"
          }],
          "url" : "http://fhir.ch/ig/ch-epl/StructureDefinition/regulatedAuthorization-limitation"
        }],
        "reference" : {
          "reference" : "ClinicalUseDefinition/IND-10084529"
        }
      }],
      "holder" : {
        "reference" : "#holder-Pfizer-AG"
      }
    }
  },
  {
    "fullUrl" : "http://fhir.epl.bag.admin.ch/CHIDMPManufacturedItemDefinition/MI-Nirmatrelvir-150mg",
    "resource" : {
      "resourceType" : "ManufacturedItemDefinition",
      "id" : "MI-Nirmatrelvir-150mg",
      "meta" : {
        "profile" : ["http://fhir.ch/ig/ch-epl/StructureDefinition/ch-idmp-manufactureditemdefinition"]
      },
      "text" : {
        "status" : "generated",
        "div" : "<div xmlns=\"http://www.w3.org/1999/xhtml\"><a name=\"ManufacturedItemDefinition_MI-Nirmatrelvir-150mg\"> </a><p class=\"res-header-id\"><b>Generated Narrative: ManufacturedItemDefinition MI-Nirmatrelvir-150mg</b></p><a name=\"MI-Nirmatrelvir-150mg\"> </a><a name=\"hcMI-Nirmatrelvir-150mg\"> </a><div style=\"display: inline-block; background-color: #d9e0e7; padding: 6px; margin: 4px; border: 1px solid #8da1b4; border-radius: 5px; line-height: 60%\"><p style=\"margin-bottom: 0px\"/><p style=\"margin-bottom: 0px\">Profile: <a href=\"StructureDefinition-ch-idmp-manufactureditemdefinition.html\">CH IDMP ManufacturedItemDefinition</a></p></div><p><b>status</b>: Active</p><p><b>manufacturedDoseForm</b>: <span title=\"Codes:{http://standardterms.edqm.eu 10221000}\">Film-coated tablet</span></p><p><b>unitOfPresentation</b>: <span title=\"Codes:{http://standardterms.edqm.eu 15054000}\">Tablet</span></p></div>"
      },
      "status" : "active",
      "manufacturedDoseForm" : {
        "coding" : [{
          "system" : "http://standardterms.edqm.eu",
          "code" : "10221000",
          "display" : "Film-coated tablet"
        }]
      },
      "unitOfPresentation" : {
        "coding" : [{
          "system" : "http://standardterms.edqm.eu",
          "code" : "15054000",
          "display" : "Tablet"
        }]
      }
    }
  },
  {
    "fullUrl" : "http://fhir.epl.bag.admin.ch/CHIDMPManufacturedItemDefinition/MI-Ritonavirum-100mg",
    "resource" : {
      "resourceType" : "ManufacturedItemDefinition",
      "id" : "MI-Ritonavirum-100mg",
      "meta" : {
        "profile" : ["http://fhir.ch/ig/ch-epl/StructureDefinition/ch-idmp-manufactureditemdefinition"]
      },
      "text" : {
        "status" : "generated",
        "div" : "<div xmlns=\"http://www.w3.org/1999/xhtml\"><a name=\"ManufacturedItemDefinition_MI-Ritonavirum-100mg\"> </a><p class=\"res-header-id\"><b>Generated Narrative: ManufacturedItemDefinition MI-Ritonavirum-100mg</b></p><a name=\"MI-Ritonavirum-100mg\"> </a><a name=\"hcMI-Ritonavirum-100mg\"> </a><div style=\"display: inline-block; background-color: #d9e0e7; padding: 6px; margin: 4px; border: 1px solid #8da1b4; border-radius: 5px; line-height: 60%\"><p style=\"margin-bottom: 0px\"/><p style=\"margin-bottom: 0px\">Profile: <a href=\"StructureDefinition-ch-idmp-manufactureditemdefinition.html\">CH IDMP ManufacturedItemDefinition</a></p></div><p><b>status</b>: Active</p><p><b>manufacturedDoseForm</b>: <span title=\"Codes:{http://standardterms.edqm.eu 10221000}\">Film-coated tablet</span></p><p><b>unitOfPresentation</b>: <span title=\"Codes:{http://standardterms.edqm.eu 15054000}\">Tablet</span></p></div>"
      },
      "status" : "active",
      "manufacturedDoseForm" : {
        "coding" : [{
          "system" : "http://standardterms.edqm.eu",
          "code" : "10221000",
          "display" : "Film-coated tablet"
        }]
      },
      "unitOfPresentation" : {
        "coding" : [{
          "system" : "http://standardterms.edqm.eu",
          "code" : "15054000",
          "display" : "Tablet"
        }]
      }
    }
  },
  {
    "fullUrl" : "http://fhir.epl.bag.admin.ch/CHIDMPAdministrableProductDefinition/PhP-Nirmatrelvir-150mg-Filmcoatedtablet",
    "resource" : {
      "resourceType" : "AdministrableProductDefinition",
      "id" : "PhP-Nirmatrelvir-150mg-Filmcoatedtablet",
      "meta" : {
        "profile" : ["http://fhir.ch/ig/ch-epl/StructureDefinition/ch-idmp-administrableproductdefinition"]
      },
      "text" : {
        "status" : "generated",
        "div" : "<div xmlns=\"http://www.w3.org/1999/xhtml\"><a name=\"AdministrableProductDefinition_PhP-Nirmatrelvir-150mg-Filmcoatedtablet\"> </a><p class=\"res-header-id\"><b>Generated Narrative: AdministrableProductDefinition PhP-Nirmatrelvir-150mg-Filmcoatedtablet</b></p><a name=\"PhP-Nirmatrelvir-150mg-Filmcoatedtablet\"> </a><a name=\"hcPhP-Nirmatrelvir-150mg-Filmcoatedtablet\"> </a><div style=\"display: inline-block; background-color: #d9e0e7; padding: 6px; margin: 4px; border: 1px solid #8da1b4; border-radius: 5px; line-height: 60%\"><p style=\"margin-bottom: 0px\"/><p style=\"margin-bottom: 0px\">Profile: <a href=\"StructureDefinition-ch-idmp-administrableproductdefinition.html\">CH IDMP AdministrableProductDefinition</a></p></div><p><b>status</b>: Active</p><p><b>formOf</b>: <a href=\"MedicinalProductDefinition-Paxlovid-Filmcoatedtablet.html\">MedicinalProductDefinition: extension = Film-coated tablet,Befristete Limitation bis 31.12.2025. PAXLOVID wird als antivirale Monotherapie für die Behandlung einer bestätigten Covid-19 Infektion (Positiver Erregernachweis Antigen/PCR und vorhandener Covid-19-Symptome) in folgenden Fällen vergütet:\n • in einer Dosierung von 300 mg Nirmatrelvir (zwei Tabletten zu je 150 mg) und 100 mg Ritonavir (eine Tablette zu 100 mg) zur gleichzeitigen Einnahme alle 12 Stunden, über einen Zeitraum von 5 Tagen\n • zur Frühbehandlung (ausser bei immunsupprimierten Personen vorzugsweise innerhalb von 5 Tagen nach Symptombeginn) bei Erwachsenen, die keine Sauerstofftherapie oder Hospitalisierung aufgrund von COVID-19 benötigen und für welche gemäss der aktuell gültigen Kriterienliste der Schweizerischen Gesellschaft für Infektiologie (SSI) (https://www.bag.admin.ch/bag/de/home/medizin-und-forschung/heilmittel/versorgung-covid-19-arzneimittel.html) ein erhöhtes Risiko für einen schweren COVID-19-Verlauf besteht.; identifier = http://fhir.ch/ig/ch-epl/sid/mpid#Medical Product Identifier#CH-7601001010604-6879301; indication = Paxlovid wird angewendet für die Behandlung der Coronavirus-Krankheit 2019 (COVID-19) bei Erwachsenen, die keine Sauerstofftherapie oder Hospitalisierung aufgrund von COVID-19 benötigen und bei denen ein erhöhtes Risiko für einen schweren Verlauf von COVID-19 besteht (siehe «Klinische Wirksamkeit»).\nPaxlovid ist nicht als Ersatz für eine Impfung gegen COVID-19 vorgesehen. Paxlovid sollte gemäss den offiziellen Empfehlungen und unter Berücksichtigung der lokalen epidemiologischen Daten zu zirkulierenden SARS-CoV-2-Varianten angewendet werden.; legalStatusOfSupply = Medicinal product subject to medical or veterinary prescription single dispensation (A+); additionalMonitoringIndicator = Black Triangle Warning; pediatricUseIndicator = Not authorised for the treatment in children; classification = Protease inhibitors,NA KAS art. 12 para. 5 TPLO,Synthetic,Originator product,08. INFEKTIONSKRANKHEITEN</a></p><p><b>administrableDoseForm</b>: <span title=\"Codes:{http://standardterms.edqm.eu 10221000}\">Film-coated tablet</span></p><p><b>unitOfPresentation</b>: <span title=\"Codes:{http://standardterms.edqm.eu 15054000}\">Tablet</span></p><h3>RouteOfAdministrations</h3><table class=\"grid\"><tr><td style=\"display: none\">-</td><td><b>Code</b></td></tr><tr><td style=\"display: none\">*</td><td><span title=\"Codes:{http://standardterms.edqm.eu 20053000}\">Oral use</span></td></tr></table></div>"
      },
      "status" : "active",
      "formOf" : [{
        "reference" : "MedicinalProductDefinition/Paxlovid-Filmcoatedtablet"
      }],
      "administrableDoseForm" : {
        "coding" : [{
          "system" : "http://standardterms.edqm.eu",
          "code" : "10221000",
          "display" : "Film-coated tablet"
        }]
      },
      "unitOfPresentation" : {
        "coding" : [{
          "system" : "http://standardterms.edqm.eu",
          "code" : "15054000",
          "display" : "Tablet"
        }]
      },
      "routeOfAdministration" : [{
        "code" : {
          "coding" : [{
            "system" : "http://standardterms.edqm.eu",
            "code" : "20053000",
            "display" : "Oral use"
          }]
        }
      }]
    }
  },
  {
    "fullUrl" : "http://fhir.epl.bag.admin.ch/CHIDMPAdministrableProductDefinition/PhP-Ritonavirum-100mg-Filmcoatedtablet",
    "resource" : {
      "resourceType" : "AdministrableProductDefinition",
      "id" : "PhP-Ritonavirum-100mg-Filmcoatedtablet",
      "meta" : {
        "profile" : ["http://fhir.ch/ig/ch-epl/StructureDefinition/ch-idmp-administrableproductdefinition"]
      },
      "text" : {
        "status" : "generated",
        "div" : "<div xmlns=\"http://www.w3.org/1999/xhtml\"><a name=\"AdministrableProductDefinition_PhP-Ritonavirum-100mg-Filmcoatedtablet\"> </a><p class=\"res-header-id\"><b>Generated Narrative: AdministrableProductDefinition PhP-Ritonavirum-100mg-Filmcoatedtablet</b></p><a name=\"PhP-Ritonavirum-100mg-Filmcoatedtablet\"> </a><a name=\"hcPhP-Ritonavirum-100mg-Filmcoatedtablet\"> </a><div style=\"display: inline-block; background-color: #d9e0e7; padding: 6px; margin: 4px; border: 1px solid #8da1b4; border-radius: 5px; line-height: 60%\"><p style=\"margin-bottom: 0px\"/><p style=\"margin-bottom: 0px\">Profile: <a href=\"StructureDefinition-ch-idmp-administrableproductdefinition.html\">CH IDMP AdministrableProductDefinition</a></p></div><p><b>status</b>: Active</p><p><b>formOf</b>: <a href=\"MedicinalProductDefinition-Paxlovid-Filmcoatedtablet.html\">MedicinalProductDefinition: extension = Film-coated tablet,Befristete Limitation bis 31.12.2025. PAXLOVID wird als antivirale Monotherapie für die Behandlung einer bestätigten Covid-19 Infektion (Positiver Erregernachweis Antigen/PCR und vorhandener Covid-19-Symptome) in folgenden Fällen vergütet:\n • in einer Dosierung von 300 mg Nirmatrelvir (zwei Tabletten zu je 150 mg) und 100 mg Ritonavir (eine Tablette zu 100 mg) zur gleichzeitigen Einnahme alle 12 Stunden, über einen Zeitraum von 5 Tagen\n • zur Frühbehandlung (ausser bei immunsupprimierten Personen vorzugsweise innerhalb von 5 Tagen nach Symptombeginn) bei Erwachsenen, die keine Sauerstofftherapie oder Hospitalisierung aufgrund von COVID-19 benötigen und für welche gemäss der aktuell gültigen Kriterienliste der Schweizerischen Gesellschaft für Infektiologie (SSI) (https://www.bag.admin.ch/bag/de/home/medizin-und-forschung/heilmittel/versorgung-covid-19-arzneimittel.html) ein erhöhtes Risiko für einen schweren COVID-19-Verlauf besteht.; identifier = http://fhir.ch/ig/ch-epl/sid/mpid#Medical Product Identifier#CH-7601001010604-6879301; indication = Paxlovid wird angewendet für die Behandlung der Coronavirus-Krankheit 2019 (COVID-19) bei Erwachsenen, die keine Sauerstofftherapie oder Hospitalisierung aufgrund von COVID-19 benötigen und bei denen ein erhöhtes Risiko für einen schweren Verlauf von COVID-19 besteht (siehe «Klinische Wirksamkeit»).\nPaxlovid ist nicht als Ersatz für eine Impfung gegen COVID-19 vorgesehen. Paxlovid sollte gemäss den offiziellen Empfehlungen und unter Berücksichtigung der lokalen epidemiologischen Daten zu zirkulierenden SARS-CoV-2-Varianten angewendet werden.; legalStatusOfSupply = Medicinal product subject to medical or veterinary prescription single dispensation (A+); additionalMonitoringIndicator = Black Triangle Warning; pediatricUseIndicator = Not authorised for the treatment in children; classification = Protease inhibitors,NA KAS art. 12 para. 5 TPLO,Synthetic,Originator product,08. INFEKTIONSKRANKHEITEN</a></p><p><b>administrableDoseForm</b>: <span title=\"Codes:{http://standardterms.edqm.eu 10221000}\">Film-coated tablet</span></p><p><b>unitOfPresentation</b>: <span title=\"Codes:{http://standardterms.edqm.eu 15054000}\">Tablet</span></p><h3>RouteOfAdministrations</h3><table class=\"grid\"><tr><td style=\"display: none\">-</td><td><b>Code</b></td></tr><tr><td style=\"display: none\">*</td><td><span title=\"Codes:{http://standardterms.edqm.eu 20053000}\">Oral use</span></td></tr></table></div>"
      },
      "status" : "active",
      "formOf" : [{
        "reference" : "MedicinalProductDefinition/Paxlovid-Filmcoatedtablet"
      }],
      "administrableDoseForm" : {
        "coding" : [{
          "system" : "http://standardterms.edqm.eu",
          "code" : "10221000",
          "display" : "Film-coated tablet"
        }]
      },
      "unitOfPresentation" : {
        "coding" : [{
          "system" : "http://standardterms.edqm.eu",
          "code" : "15054000",
          "display" : "Tablet"
        }]
      },
      "routeOfAdministration" : [{
        "code" : {
          "coding" : [{
            "system" : "http://standardterms.edqm.eu",
            "code" : "20053000",
            "display" : "Oral use"
          }]
        }
      }]
    }
  },
  {
    "fullUrl" : "http://fhir.epl.bag.admin.ch/CHIDMPIngredient/Nirmatrelvir150",
    "resource" : {
      "resourceType" : "Ingredient",
      "id" : "Nirmatrelvir150",
      "meta" : {
        "profile" : ["http://fhir.ch/ig/ch-epl/StructureDefinition/ch-idmp-ingredient"]
      },
      "text" : {
        "status" : "generated",
        "div" : "<div xmlns=\"http://www.w3.org/1999/xhtml\"><a name=\"Ingredient_Nirmatrelvir150\"> </a><p class=\"res-header-id\"><b>Generated Narrative: Ingredient Nirmatrelvir150</b></p><a name=\"Nirmatrelvir150\"> </a><a name=\"hcNirmatrelvir150\"> </a><div style=\"display: inline-block; background-color: #d9e0e7; padding: 6px; margin: 4px; border: 1px solid #8da1b4; border-radius: 5px; line-height: 60%\"><p style=\"margin-bottom: 0px\"/><p style=\"margin-bottom: 0px\">Profile: <a href=\"StructureDefinition-ch-idmp-ingredient.html\">IDMP Ingredient</a></p></div><p><b>status</b>: Active</p><p><b>for</b>: </p><ul><li><a href=\"AdministrableProductDefinition-PhP-Nirmatrelvir-150mg-Filmcoatedtablet.html\">AdministrableProductDefinition: status = active; administrableDoseForm = Film-coated tablet; unitOfPresentation = Tablet</a></li><li><a href=\"ManufacturedItemDefinition-MI-Nirmatrelvir-150mg.html\">ManufacturedItemDefinition: status = active; manufacturedDoseForm = Film-coated tablet; unitOfPresentation = Tablet</a></li></ul><p><b>role</b>: <span title=\"Codes:{http://fhir.ch/ig/ch-epl/CodeSystem/ch-SMC-ingredient-role 756005051001}\">Active</span></p><blockquote><p><b>substance</b></p><h3>Codes</h3><table class=\"grid\"><tr><td style=\"display: none\">-</td><td><b>Concept</b></td></tr><tr><td style=\"display: none\">*</td><td><span title=\"Codes:{http://fhir.ch/ig/ch-epl/CodeSystem/ch-SMC-substance 7R9A5P7H32}\">Nirmatrelvir</span></td></tr></table><h3>Strengths</h3><table class=\"grid\"><tr><td style=\"display: none\">-</td><td><b>Presentation[x]</b></td></tr><tr><td style=\"display: none\">*</td><td>150 mg<span style=\"background: LightGoldenRodYellow\"> (Details: UCUM  codemg = 'mg')</span>/1 Tablet<span style=\"background: LightGoldenRodYellow\"> (Details: EDQM - Standard Terms  code15054000 = 'Tablet')</span></td></tr></table></blockquote></div>"
      },
      "status" : "active",
      "for" : [{
        "reference" : "AdministrableProductDefinition/PhP-Nirmatrelvir-150mg-Filmcoatedtablet"
      },
      {
        "reference" : "ManufacturedItemDefinition/MI-Nirmatrelvir-150mg"
      }],
      "role" : {
        "coding" : [{
          "system" : "http://fhir.ch/ig/ch-epl/CodeSystem/ch-SMC-ingredient-role",
          "code" : "756005051001",
          "display" : "Active"
        }]
      },
      "substance" : {
        "code" : {
          "concept" : {
            "coding" : [{
              "system" : "http://fhir.ch/ig/ch-epl/CodeSystem/ch-SMC-substance",
              "code" : "7R9A5P7H32",
              "display" : "Nirmatrelvir"
            }]
          }
        },
        "strength" : [{
          "presentationRatio" : {
            "numerator" : {
              "value" : 150,
              "unit" : "mg",
              "system" : "http://unitsofmeasure.org",
              "code" : "mg"
            },
            "denominator" : {
              "value" : 1,
              "unit" : "Tablet",
              "system" : "http://standardterms.edqm.eu",
              "code" : "15054000"
            }
          }
        }]
      }
    }
  },
  {
    "fullUrl" : "http://fhir.epl.bag.admin.ch/CHIDMPIngredient/Ritonavirum100",
    "resource" : {
      "resourceType" : "Ingredient",
      "id" : "Ritonavirum100",
      "meta" : {
        "profile" : ["http://fhir.ch/ig/ch-epl/StructureDefinition/ch-idmp-ingredient"]
      },
      "text" : {
        "status" : "generated",
        "div" : "<div xmlns=\"http://www.w3.org/1999/xhtml\"><a name=\"Ingredient_Ritonavirum100\"> </a><p class=\"res-header-id\"><b>Generated Narrative: Ingredient Ritonavirum100</b></p><a name=\"Ritonavirum100\"> </a><a name=\"hcRitonavirum100\"> </a><div style=\"display: inline-block; background-color: #d9e0e7; padding: 6px; margin: 4px; border: 1px solid #8da1b4; border-radius: 5px; line-height: 60%\"><p style=\"margin-bottom: 0px\"/><p style=\"margin-bottom: 0px\">Profile: <a href=\"StructureDefinition-ch-idmp-ingredient.html\">IDMP Ingredient</a></p></div><p><b>status</b>: Active</p><p><b>for</b>: </p><ul><li><a href=\"AdministrableProductDefinition-PhP-Ritonavirum-100mg-Filmcoatedtablet.html\">AdministrableProductDefinition: status = active; administrableDoseForm = Film-coated tablet; unitOfPresentation = Tablet</a></li><li><a href=\"ManufacturedItemDefinition-MI-Ritonavirum-100mg.html\">ManufacturedItemDefinition: status = active; manufacturedDoseForm = Film-coated tablet; unitOfPresentation = Tablet</a></li></ul><p><b>role</b>: <span title=\"Codes:{http://fhir.ch/ig/ch-epl/CodeSystem/ch-SMC-ingredient-role 756005051001}\">Active</span></p><blockquote><p><b>substance</b></p><h3>Codes</h3><table class=\"grid\"><tr><td style=\"display: none\">-</td><td><b>Concept</b></td></tr><tr><td style=\"display: none\">*</td><td><span title=\"Codes:{http://fhir.ch/ig/ch-epl/CodeSystem/ch-SMC-substance O3J8G9O825}\">Ritonavir</span></td></tr></table><h3>Strengths</h3><table class=\"grid\"><tr><td style=\"display: none\">-</td><td><b>Presentation[x]</b></td></tr><tr><td style=\"display: none\">*</td><td>100 mg<span style=\"background: LightGoldenRodYellow\"> (Details: UCUM  codemg = 'mg')</span>/1 Tablet<span style=\"background: LightGoldenRodYellow\"> (Details: EDQM - Standard Terms  code15054000 = 'Tablet')</span></td></tr></table></blockquote></div>"
      },
      "status" : "active",
      "for" : [{
        "reference" : "AdministrableProductDefinition/PhP-Ritonavirum-100mg-Filmcoatedtablet"
      },
      {
        "reference" : "ManufacturedItemDefinition/MI-Ritonavirum-100mg"
      }],
      "role" : {
        "coding" : [{
          "system" : "http://fhir.ch/ig/ch-epl/CodeSystem/ch-SMC-ingredient-role",
          "code" : "756005051001",
          "display" : "Active"
        }]
      },
      "substance" : {
        "code" : {
          "concept" : {
            "coding" : [{
              "system" : "http://fhir.ch/ig/ch-epl/CodeSystem/ch-SMC-substance",
              "code" : "O3J8G9O825",
              "display" : "Ritonavir"
            }]
          }
        },
        "strength" : [{
          "presentationRatio" : {
            "numerator" : {
              "value" : 100,
              "unit" : "mg",
              "system" : "http://unitsofmeasure.org",
              "code" : "mg"
            },
            "denominator" : {
              "value" : 1,
              "unit" : "Tablet",
              "system" : "http://standardterms.edqm.eu",
              "code" : "15054000"
            }
          }
        }]
      }
    }
  },
  {
    "fullUrl" : "http://fhir.epl.bag.admin.ch/CHIDMPClinicalUseDefinition/IND-10084529",
    "resource" : {
      "resourceType" : "ClinicalUseDefinition",
      "id" : "IND-10084529",
      "meta" : {
        "profile" : ["http://fhir.ch/ig/ch-epl/StructureDefinition/ch-idmp-clinicalusedefinition-indication"]
      },
      "text" : {
        "status" : "generated",
        "div" : "<div xmlns=\"http://www.w3.org/1999/xhtml\"><a name=\"ClinicalUseDefinition_IND-10084529\"> </a><p class=\"res-header-id\"><b>Generated Narrative: ClinicalUseDefinition IND-10084529</b></p><a name=\"IND-10084529\"> </a><a name=\"hcIND-10084529\"> </a><div style=\"display: inline-block; background-color: #d9e0e7; padding: 6px; margin: 4px; border: 1px solid #8da1b4; border-radius: 5px; line-height: 60%\"><p style=\"margin-bottom: 0px\"/><p style=\"margin-bottom: 0px\">Profile: <a href=\"StructureDefinition-ch-idmp-clinicalusedefinition-indication.html\">CH IDMP ClinicalUseDefinition Indication</a></p></div><p><b>type</b>: Indication</p><p><b>subject</b>: <a href=\"MedicinalProductDefinition-Paxlovid-Filmcoatedtablet.html\">MedicinalProductDefinition: extension = Film-coated tablet,Befristete Limitation bis 31.12.2025. PAXLOVID wird als antivirale Monotherapie für die Behandlung einer bestätigten Covid-19 Infektion (Positiver Erregernachweis Antigen/PCR und vorhandener Covid-19-Symptome) in folgenden Fällen vergütet:\n • in einer Dosierung von 300 mg Nirmatrelvir (zwei Tabletten zu je 150 mg) und 100 mg Ritonavir (eine Tablette zu 100 mg) zur gleichzeitigen Einnahme alle 12 Stunden, über einen Zeitraum von 5 Tagen\n • zur Frühbehandlung (ausser bei immunsupprimierten Personen vorzugsweise innerhalb von 5 Tagen nach Symptombeginn) bei Erwachsenen, die keine Sauerstofftherapie oder Hospitalisierung aufgrund von COVID-19 benötigen und für welche gemäss der aktuell gültigen Kriterienliste der Schweizerischen Gesellschaft für Infektiologie (SSI) (https://www.bag.admin.ch/bag/de/home/medizin-und-forschung/heilmittel/versorgung-covid-19-arzneimittel.html) ein erhöhtes Risiko für einen schweren COVID-19-Verlauf besteht.; identifier = http://fhir.ch/ig/ch-epl/sid/mpid#Medical Product Identifier#CH-7601001010604-6879301; indication = Paxlovid wird angewendet für die Behandlung der Coronavirus-Krankheit 2019 (COVID-19) bei Erwachsenen, die keine Sauerstofftherapie oder Hospitalisierung aufgrund von COVID-19 benötigen und bei denen ein erhöhtes Risiko für einen schweren Verlauf von COVID-19 besteht (siehe «Klinische Wirksamkeit»).\nPaxlovid ist nicht als Ersatz für eine Impfung gegen COVID-19 vorgesehen. Paxlovid sollte gemäss den offiziellen Empfehlungen und unter Berücksichtigung der lokalen epidemiologischen Daten zu zirkulierenden SARS-CoV-2-Varianten angewendet werden.; legalStatusOfSupply = Medicinal product subject to medical or veterinary prescription single dispensation (A+); additionalMonitoringIndicator = Black Triangle Warning; pediatricUseIndicator = Not authorised for the treatment in children; classification = Protease inhibitors,NA KAS art. 12 para. 5 TPLO,Synthetic,Originator product,08. INFEKTIONSKRANKHEITEN</a></p><blockquote><p><b>indication</b></p><h3>DiseaseSymptomProcedures</h3><table class=\"grid\"><tr><td style=\"display: none\">-</td><td><b>Concept</b></td></tr><tr><td style=\"display: none\">*</td><td><span title=\"Codes:{https://www.meddra.org 10084529}\">Coronavirus-Krankheit 2019 (COVID-19)</span></td></tr></table><h3>IntendedEffects</h3><table class=\"grid\"><tr><td style=\"display: none\">-</td><td><b>Concept</b></td></tr><tr><td style=\"display: none\">*</td><td><span title=\"Codes:{http://spor.ema.europa.eu/v1/lists/200000003186 200000003194}\">therapeutic</span></td></tr></table></blockquote></div>"
      },
      "type" : "indication",
      "subject" : [{
        "reference" : "MedicinalProductDefinition/Paxlovid-Filmcoatedtablet"
      }],
      "indication" : {
        "diseaseSymptomProcedure" : {
          "concept" : {
            "coding" : [{
              "system" : "https://www.meddra.org",
              "code" : "10084529",
              "display" : "Coronavirus-Krankheit 2019 (COVID-19)"
            }]
          }
        },
        "intendedEffect" : {
          "concept" : {
            "coding" : [{
              "system" : "http://spor.ema.europa.eu/v1/lists/200000003186",
              "code" : "200000003194",
              "display" : "therapeutic"
            }]
          }
        }
      }
    }
  },
  {
    "fullUrl" : "http://fhir.epl.bag.admin.ch/CHIDMPClinicalUseDefinition/LIM-840539006",
    "resource" : {
      "resourceType" : "ClinicalUseDefinition",
      "id" : "LIM-840539006",
      "text" : {
        "status" : "generated",
        "div" : "<div xmlns=\"http://www.w3.org/1999/xhtml\"><a name=\"ClinicalUseDefinition_LIM-840539006\"> </a><p class=\"res-header-id\"><b>Generated Narrative: ClinicalUseDefinition LIM-840539006</b></p><a name=\"LIM-840539006\"> </a><a name=\"hcLIM-840539006\"> </a><p><b>type</b>: Indication</p><blockquote><p><b>indication</b></p><h3>DiseaseSymptomProcedures</h3><table class=\"grid\"><tr><td style=\"display: none\">-</td><td><b>Concept</b></td></tr><tr><td style=\"display: none\">*</td><td><span title=\"Codes:{http://snomed.info/sct 840539006}\">Disease caused by severe acute respiratory syndrome coronavirus 2 (disorder)</span></td></tr></table><h3>IntendedEffects</h3><table class=\"grid\"><tr><td style=\"display: none\">-</td><td><b>Concept</b></td></tr><tr><td style=\"display: none\">*</td><td><span title=\"Codes:{http://spor.ema.europa.eu/v1/lists/200000003186 200000003194}\">therapeutic</span></td></tr></table></blockquote></div>"
      },
      "type" : "indication",
      "indication" : {
        "diseaseSymptomProcedure" : {
          "concept" : {
            "coding" : [{
              "system" : "http://snomed.info/sct",
              "code" : "840539006",
              "display" : "Disease caused by severe acute respiratory syndrome coronavirus 2 (disorder)"
            }]
          }
        },
        "intendedEffect" : {
          "concept" : {
            "coding" : [{
              "system" : "http://spor.ema.europa.eu/v1/lists/200000003186",
              "code" : "200000003194",
              "display" : "therapeutic"
            }]
          }
        }
      }
    }
  }]
}