{
  "resourceType" : "Bundle",
  "id" : "3e18bbe5-4cc2-4eaa-8d27-815c0e885025",
  "meta" : {
    "profile" : ["http://fhir.ch/ig/ch-epl/StructureDefinition/ch-idmp-bundle"]
  },
  "type" : "collection",
  "entry" : [{
    "fullUrl" : "http://fhir.epl.bag.admin.ch/CHIDMPMedicinalProductDefinition/Abrilada-40mg-Pre-Filled-Pen",
    "resource" : {
      "resourceType" : "MedicinalProductDefinition",
      "id" : "Abrilada-40mg-Pre-Filled-Pen",
      "meta" : {
        "profile" : ["http://fhir.ch/ig/ch-epl/StructureDefinition/ch-idmp-medicinalproductdefinition"]
      },
      "text" : {
        "status" : "extensions",
        "div" : "<div xmlns=\"http://www.w3.org/1999/xhtml\"><a name=\"MedicinalProductDefinition_Abrilada-40mg-Pre-Filled-Pen\"> </a><p class=\"res-header-id\"><b>Generated Narrative: MedicinalProductDefinition Abrilada-40mg-Pre-Filled-Pen</b></p><a name=\"Abrilada-40mg-Pre-Filled-Pen\"> </a><a name=\"hcAbrilada-40mg-Pre-Filled-Pen\"> </a><div style=\"display: inline-block; background-color: #d9e0e7; padding: 6px; margin: 4px; border: 1px solid #8da1b4; border-radius: 5px; line-height: 60%\"><p style=\"margin-bottom: 0px\"/><p style=\"margin-bottom: 0px\">Profile: <a href=\"StructureDefinition-ch-idmp-medicinalproductdefinition.html\">IDMP MedicinalProductDefinition</a></p></div><p><b>CH - SMC Authorized Dose Form</b>: <span title=\"Codes:{http://standardterms.edqm.eu 11201000}\">Solution for injection</span></p><p><b>CH - EPL Full Limitation Text</b>: Austausch Referenzpräparat/Biosimilar\nDie Behandlung mit ABRILADA bedarf der Kostengutsprache durch den Krankenversicherer nach vorgängiger Konsultation des Vertrauensarztes. Für die Behandlung mit ABRILADA ist keine neue Kostengutsprache nötig, wenn in derselben Indikation bereits eine Kostengutsprache für das Referenzpräparat oder ein anderes Biosimilar besteht.\n\nAktive rheumatoide Arthritis\nBehandlung mit ABRILADA, wenn die vorausgegangene antirheumatische Standardtherapie mit krankheitsmodifizierenden Antirheumatika (DMARDs) unzulänglich war.\n\nAktive polyartikuläre juvenile idiopathische Arthritis bei Kindern und Jugendlichen ab einem Körpergewicht von ≥ 30 kg\nBehandlung mit ABRILADA, wenn die vorausgegangene Standardtherapie mit krankheitsmodifizierenden Antirheumatika (DMARDs) unzulänglich war.\n\nPsoriasis-Arthritis\nBehandlung mit ABRILADA, wenn die vorausgegangene Standardtherapie mit krankheitsmodifizierenden Antirheumatika (DMARDs) unzulänglich war.\n\nAnkylosierende Spondylitis (Morbus Bechterew)\nBehandlung mit ABRILADA, wenn die vorausgegangene konventionelle Therapie unzulänglich war oder nicht vertragen wurde.\n\nAktiver Morbus Crohn\nBehandlung erwachsener Patienten mit ABRILADA, wenn die vorausgegangene konventionelle Therapie (z.B. mit Azathioprin, 6-Mercaptopurin oder Glukokortikoiden) unzulänglich war, sowie bei Patienten, die nicht mehr auf Infliximab ansprechen oder dieses nicht vertragen. Nach zwei Jahren ununterbrochener Therapie bedarf die Behandlung einer erneuten Kostengutsprache durch den Krankenversicherer nach vorgängiger Konsultation des Vertrauensarztes.\n\nModerate bis schwere Colitis ulcerosa\nBehandlung erwachsener Patienten mit ABRILADA, wenn die vorausgegangene konventionelle Therapie (z.B. mit Azathioprin, 6-Mercaptopurin oder Glukokortikoiden) unzulänglich war oder nicht vertragen wurde.\n\nDie Verschreibung von ABRILADA für die folgenden Behandlungen kann nur durch Fachärzte der Dermatologie oder dermatologische Universitätskliniken/ Polikliniken erfolgen:\n\nSchwere Plaque-Psoriasis\nBehandlung erwachsener Patienten mit schwerer Plaque-Psoriasis, bei denen eine Phototherapie oder eine der folgenden konventionellen systemischen Therapien (Ciclosporin, Methotrexat, Acitretin) keinen therapeutischen Erfolg gezeigt haben. Falls nach 16 Wochen kein therapeutischer Erfolg eingetreten ist, ist die Behandlung abzubrechen.\n\nAktive, mittelschwere bis schwere Hidradenitis suppurativa (Acne inversa)\nBehandlung erwachsener Patienten, wenn die vorausgegangene systemische Therapie mit Antibiotika unzulänglich war. Bei Patienten, die nach 12 Wochen kein Ansprechen nach HiSCR von mindestens 50% zeigen, ist die Behandlung abzubrechen. Nach 52 Wochen ununterbrochener Therapie bedarf die Behandlung einer erneuten Kostengutsprache durch den Krankenversicherer nach vorgängiger Konsultation des Vertrauensarztes.</p><p><b>identifier</b>: <a href=\"NamingSystem-MPID.html\" title=\"Temporary Identifier in this implementation guide until officially released by Swissmedic\">Medical Product Identifier</a>/CH-7601001010604-6783101</p><p><b>indication</b>: </p><div><p>Rheumatoide Arthritis\nAbrilada ist indiziert zur Reduzierung der Anzeichen und Symptome sowie zur Verlangsamung der Progression struktureller Schäden und zur Verbesserung der körperlichen Funktionsfähigkeit bei erwachsenen Patienten mit einer mässig bis stark ausgeprägten aktiven rheumatoiden Arthritis, die nur unzureichend auf krankheitsmodifizierende Antirheumatika (DMARDs) angesprochen haben.\nAbrilada kann als Monotherapie oder in Kombination mit Methotrexat bzw. anderen krankheitsmodifizierenden Antirheumatika eingesetzt werden, wobei aber die Kombination von Adalimumab mit Ciclosporin, Azathioprin und anderen anti-TNF-α-Therapien nicht untersucht worden ist.\nBei Patienten, bei denen eine mässig bis stark ausgeprägte rheumatoide Arthritis erst kürzlich (&lt;3 Jahre) diagnostiziert wurde und die zuvor nicht mit Methotrexat behandelt worden war, konnte eine Wirksamkeit von Adalimumab in Kombination mit Methotrexat gezeigt werden.</p>\n<p>Polyartikuläre juvenile idiopathische Arthritis (ab 30 kg Körpergewicht)\nAbrilada ist in Kombination mit Methotrexat indiziert zur Behandlung der aktiven polyartikulären juvenilen idiopathischen Arthritis bei Kindern und Jugendlichen ab 30 kg Körpergewicht, die nur unzureichend auf ein oder mehrere krankheitsmodifizierende Antirheumatika (DMARDs), einschliesslich Methotrexat, angesprochen haben oder eine solche Therapie nicht tolerieren. Abrilada kann im Falle einer Unverträglichkeit gegenüber Methotrexat oder, wenn die weitere Behandlung mit Methotrexat nicht möglich ist, als Monotherapie angewendet werden. Bei Kindern, die jünger als 4 Jahre sind, wurde Adalimumab nicht untersucht.</p>\n<p>Psoriasis-Arthritis\nAbrilada ist indiziert zur Reduzierung der Anzeichen und Symptome der Psoriasis-Arthritis bei Patienten mit ungenügendem Ansprechen auf krankheitsmodifizierende Antirheumatika. Abrilada reduziert die Progressionsrate struktureller Schäden und verbessert die körperliche Funktionsfähigkeit bei Patienten mit der polyartikulären, symmetrischen Form der Erkrankung. Abrilada kann als Monotherapie oder in Kombination mit krankheitsmodifizierenden Antirheumatika angewendet werden.</p>\n<p>Ankylosierende Spondylitis (Morbus Bechterew)\nAbrilada ist indiziert zur Behandlung von erwachsenen Patienten mit aktiver ankylosierender Spondylitis, die nur unzureichend auf herkömmliche Therapien angesprochen haben.</p>\n<p>Morbus Crohn\nAbrilada ist indiziert zur Behandlung von erwachsenen Patienten mit einem Morbus Crohn mit mässiger bis hoher Krankheitsaktivität, die nur unzureichend auf herkömmliche Therapien angesprochen haben, sowie bei erwachsenen Patienten, die nicht mehr auf Infliximab ansprechen oder dieses nicht vertragen.</p>\n<p>Colitis ulcerosa\nAbrilada ist indiziert zur Behandlung der mittelschweren bis schweren aktiven Colitis ulcerosa bei erwachsenen Patienten, die auf die herkömmliche Therapie, einschliesslich Glukokortikoide und/oder 6-Mercaptopurin (6-MP) oder Azathioprin (AZA), unzureichend angesprochen haben oder die eine Unverträglichkeit gegen eine solche Therapie haben oder bei denen eine solche Therapie kontraindiziert ist.</p>\n<p>Psoriasis\nAbrilada ist als Monotherapie indiziert zur Behandlung von erwachsenen Patienten mit mittelschwerer bis schwerer, chronischer Plaque-Psoriasis, bei denen eine systemische Therapie oder eine PUVA-Therapie angezeigt ist.</p>\n<p>Psoriasis bei Kindern und Jugendlichen (ab 30 kg Körpergewicht)\nAbrilada ist indiziert zur Behandlung der schweren chronischen Plaque-Psoriasis bei Kindern und Jugendlichen mit einem Körpergewicht ≥30 kg, die nur unzureichend auf Phototherapien oder systemische Vortherapien angesprochen haben oder für die diese Therapien nicht geeignet sind.</p>\n<p>Hidradenitis suppurativa (Acne inversa)\nAbrilada ist indiziert zur Behandlung von erwachsenen Patienten mit aktiver mittelschwerer bis schwerer Hidradenitis suppurativa (Acne inversa), die unzureichend auf eine systemische Antibiotikatherapie angesprochen haben.</p>\n<p>Uveitis\nAbrilada ist indiziert zur Induktion (in Kombination mit Kortikosteroiden) und Erhaltung einer Remission bei erwachsenen Patienten mit Kortikosteroid-abhängiger nicht-infektiöser intermediärer Uveitis, posteriorer Uveitis oder Panuveitis, die nur unzureichend auf Kortikosteroide mit oder ohne Immunmodulatoren angesprochen haben oder die eine Kortikoid sparende Behandlung benötigen. Die Kombination mit Kortikosteroiden und/oder Immunmodulatoren richtet sich nach dem anatomischen und funktionellen Verlauf.</p>\n</div><p><b>legalStatusOfSupply</b>: <span title=\"Codes:{http://fhir.ch/ig/ch-epl/CodeSystem/ch-SMC-legal-status-of-supply 756005022003}\">Medicinal product subject to medical or veterinary prescription (B)</span></p><p><b>additionalMonitoringIndicator</b>: <span title=\"Codes:{http://fhir.ch/ig/ch-epl/CodeSystem/ch-SMC-additional-monitoring-indicator 756005001003}\">No Warning</span></p><p><b>pediatricUseIndicator</b>: <span title=\"Codes:{http://fhir.ch/ig/ch-epl/CodeSystem/ch-SMC-pediatric-use-indicator 756005003001}\">Authorised for the treatment in children</span></p><p><b>classification</b>: <span title=\"Codes:{http://www.whocc.no/atc L04AB04}\">adalimumab</span>, <span title=\"Codes:{http://fhir.ch/ig/ch-epl/CodeSystem/ch-SMC-authorisation-category 756005021024}\">Extension for biosimilar</span>, <span title=\"Codes:{http://fhir.ch/ig/ch-epl/CodeSystem/ch-SMC-therapeuticproductcode 756005004003}\">Biologics</span>, <span title=\"Codes:{http://fhir.ch/ig/ch-epl/CodeSystem/ch-epl-foph-product-type 756001003002}\">Originator product</span>, <span title=\"Codes:{http://fhir.ch/ig/ch-epl/CodeSystem/ch-epl-foph-index-therapeuticus 070000}, {http://fhir.ch/ig/ch-epl/CodeSystem/ch-epl-foph-index-therapeuticus 071500}\">07. STOFFWECHSEL</span></p><p><b>attachedDocument</b>: </p><ul><li><a href=\"DocumentReference-DocRef-FI-Abrilada.html\">DocumentReference: identifier = http://fhir.ch/ig/ch-epl/sid/attno#Application / Assessment Tracking Number#123456789-initial submission-Example-klm-123; status = current; type = Fachinformation; date = 2025-05-01 00:00:00+0000</a></li><li><a href=\"DocumentReference-DocRef-PI-Abrilada.html\">DocumentReference: identifier = http://fhir.ch/ig/ch-epl/sid/attno#Application / Assessment Tracking Number#123456789-initial submission-Example-hij-321; status = current; type = Patienteninformation; date = 2025-05-01 00:00:00+0000</a></li></ul><blockquote><p><b>name</b></p><p><b>productName</b>: ABRILADA Inj Lös 40 mg/0.8ml Fertpen 0.8 ml</p><p><b>type</b>: <span title=\"Codes:{http://fhir.ch/ig/ch-epl/CodeSystem/ch-medicinal-product-name-type SMC}\">Zugelassener Arzneimittelname</span></p><h3>Usages</h3><table class=\"grid\"><tr><td style=\"display: none\">-</td><td><b>Country</b></td><td><b>Language</b></td></tr><tr><td style=\"display: none\">*</td><td><span title=\"Codes:{urn:iso:std:iso:3166 CH}\">Switzerland</span></td><td><span title=\"Codes:{urn:ietf:bcp:47 de-CH}\">German (Switzerland)</span></td></tr></table></blockquote></div>"
      },
      "extension" : [{
        "url" : "http://fhir.ch/ig/ch-epl/StructureDefinition/authorizedDoseForm",
        "valueCodeableConcept" : {
          "coding" : [{
            "system" : "http://standardterms.edqm.eu",
            "code" : "11201000",
            "display" : "Solution for injection"
          }]
        }
      },
      {
        "url" : "http://fhir.ch/ig/ch-epl/StructureDefinition/fullLimitationText",
        "valueString" : "Austausch Referenzpräparat/Biosimilar\nDie Behandlung mit ABRILADA bedarf der Kostengutsprache durch den Krankenversicherer nach vorgängiger Konsultation des Vertrauensarztes. Für die Behandlung mit ABRILADA ist keine neue Kostengutsprache nötig, wenn in derselben Indikation bereits eine Kostengutsprache für das Referenzpräparat oder ein anderes Biosimilar besteht.\n\nAktive rheumatoide Arthritis\nBehandlung mit ABRILADA, wenn die vorausgegangene antirheumatische Standardtherapie mit krankheitsmodifizierenden Antirheumatika (DMARDs) unzulänglich war.\n\nAktive polyartikuläre juvenile idiopathische Arthritis bei Kindern und Jugendlichen ab einem Körpergewicht von ≥ 30 kg\nBehandlung mit ABRILADA, wenn die vorausgegangene Standardtherapie mit krankheitsmodifizierenden Antirheumatika (DMARDs) unzulänglich war.\n\nPsoriasis-Arthritis\nBehandlung mit ABRILADA, wenn die vorausgegangene Standardtherapie mit krankheitsmodifizierenden Antirheumatika (DMARDs) unzulänglich war.\n\nAnkylosierende Spondylitis (Morbus Bechterew)\nBehandlung mit ABRILADA, wenn die vorausgegangene konventionelle Therapie unzulänglich war oder nicht vertragen wurde.\n\nAktiver Morbus Crohn\nBehandlung erwachsener Patienten mit ABRILADA, wenn die vorausgegangene konventionelle Therapie (z.B. mit Azathioprin, 6-Mercaptopurin oder Glukokortikoiden) unzulänglich war, sowie bei Patienten, die nicht mehr auf Infliximab ansprechen oder dieses nicht vertragen. Nach zwei Jahren ununterbrochener Therapie bedarf die Behandlung einer erneuten Kostengutsprache durch den Krankenversicherer nach vorgängiger Konsultation des Vertrauensarztes.\n\nModerate bis schwere Colitis ulcerosa\nBehandlung erwachsener Patienten mit ABRILADA, wenn die vorausgegangene konventionelle Therapie (z.B. mit Azathioprin, 6-Mercaptopurin oder Glukokortikoiden) unzulänglich war oder nicht vertragen wurde.\n\nDie Verschreibung von ABRILADA für die folgenden Behandlungen kann nur durch Fachärzte der Dermatologie oder dermatologische Universitätskliniken/ Polikliniken erfolgen:\n\nSchwere Plaque-Psoriasis\nBehandlung erwachsener Patienten mit schwerer Plaque-Psoriasis, bei denen eine Phototherapie oder eine der folgenden konventionellen systemischen Therapien (Ciclosporin, Methotrexat, Acitretin) keinen therapeutischen Erfolg gezeigt haben. Falls nach 16 Wochen kein therapeutischer Erfolg eingetreten ist, ist die Behandlung abzubrechen.\n\nAktive, mittelschwere bis schwere Hidradenitis suppurativa (Acne inversa)\nBehandlung erwachsener Patienten, wenn die vorausgegangene systemische Therapie mit Antibiotika unzulänglich war. Bei Patienten, die nach 12 Wochen kein Ansprechen nach HiSCR von mindestens 50% zeigen, ist die Behandlung abzubrechen. Nach 52 Wochen ununterbrochener Therapie bedarf die Behandlung einer erneuten Kostengutsprache durch den Krankenversicherer nach vorgängiger Konsultation des Vertrauensarztes."
      }],
      "identifier" : [{
        "system" : "http://fhir.ch/ig/ch-epl/sid/mpid",
        "value" : "CH-7601001010604-6783101"
      }],
      "indication" : "Rheumatoide Arthritis\nAbrilada ist indiziert zur Reduzierung der Anzeichen und Symptome sowie zur Verlangsamung der Progression struktureller Schäden und zur Verbesserung der körperlichen Funktionsfähigkeit bei erwachsenen Patienten mit einer mässig bis stark ausgeprägten aktiven rheumatoiden Arthritis, die nur unzureichend auf krankheitsmodifizierende Antirheumatika (DMARDs) angesprochen haben.\nAbrilada kann als Monotherapie oder in Kombination mit Methotrexat bzw. anderen krankheitsmodifizierenden Antirheumatika eingesetzt werden, wobei aber die Kombination von Adalimumab mit Ciclosporin, Azathioprin und anderen anti-TNF-α-Therapien nicht untersucht worden ist.\nBei Patienten, bei denen eine mässig bis stark ausgeprägte rheumatoide Arthritis erst kürzlich (<3 Jahre) diagnostiziert wurde und die zuvor nicht mit Methotrexat behandelt worden war, konnte eine Wirksamkeit von Adalimumab in Kombination mit Methotrexat gezeigt werden.\n\nPolyartikuläre juvenile idiopathische Arthritis (ab 30 kg Körpergewicht)\nAbrilada ist in Kombination mit Methotrexat indiziert zur Behandlung der aktiven polyartikulären juvenilen idiopathischen Arthritis bei Kindern und Jugendlichen ab 30 kg Körpergewicht, die nur unzureichend auf ein oder mehrere krankheitsmodifizierende Antirheumatika (DMARDs), einschliesslich Methotrexat, angesprochen haben oder eine solche Therapie nicht tolerieren. Abrilada kann im Falle einer Unverträglichkeit gegenüber Methotrexat oder, wenn die weitere Behandlung mit Methotrexat nicht möglich ist, als Monotherapie angewendet werden. Bei Kindern, die jünger als 4 Jahre sind, wurde Adalimumab nicht untersucht.\n\nPsoriasis-Arthritis\nAbrilada ist indiziert zur Reduzierung der Anzeichen und Symptome der Psoriasis-Arthritis bei Patienten mit ungenügendem Ansprechen auf krankheitsmodifizierende Antirheumatika. Abrilada reduziert die Progressionsrate struktureller Schäden und verbessert die körperliche Funktionsfähigkeit bei Patienten mit der polyartikulären, symmetrischen Form der Erkrankung. Abrilada kann als Monotherapie oder in Kombination mit krankheitsmodifizierenden Antirheumatika angewendet werden.\n\nAnkylosierende Spondylitis (Morbus Bechterew)\nAbrilada ist indiziert zur Behandlung von erwachsenen Patienten mit aktiver ankylosierender Spondylitis, die nur unzureichend auf herkömmliche Therapien angesprochen haben.\n\nMorbus Crohn\nAbrilada ist indiziert zur Behandlung von erwachsenen Patienten mit einem Morbus Crohn mit mässiger bis hoher Krankheitsaktivität, die nur unzureichend auf herkömmliche Therapien angesprochen haben, sowie bei erwachsenen Patienten, die nicht mehr auf Infliximab ansprechen oder dieses nicht vertragen.\n\nColitis ulcerosa\nAbrilada ist indiziert zur Behandlung der mittelschweren bis schweren aktiven Colitis ulcerosa bei erwachsenen Patienten, die auf die herkömmliche Therapie, einschliesslich Glukokortikoide und/oder 6-Mercaptopurin (6-MP) oder Azathioprin (AZA), unzureichend angesprochen haben oder die eine Unverträglichkeit gegen eine solche Therapie haben oder bei denen eine solche Therapie kontraindiziert ist.\n\nPsoriasis\nAbrilada ist als Monotherapie indiziert zur Behandlung von erwachsenen Patienten mit mittelschwerer bis schwerer, chronischer Plaque-Psoriasis, bei denen eine systemische Therapie oder eine PUVA-Therapie angezeigt ist.\n\nPsoriasis bei Kindern und Jugendlichen (ab 30 kg Körpergewicht)\nAbrilada ist indiziert zur Behandlung der schweren chronischen Plaque-Psoriasis bei Kindern und Jugendlichen mit einem Körpergewicht ≥30 kg, die nur unzureichend auf Phototherapien oder systemische Vortherapien angesprochen haben oder für die diese Therapien nicht geeignet sind.\n\nHidradenitis suppurativa (Acne inversa)\nAbrilada ist indiziert zur Behandlung von erwachsenen Patienten mit aktiver mittelschwerer bis schwerer Hidradenitis suppurativa (Acne inversa), die unzureichend auf eine systemische Antibiotikatherapie angesprochen haben.\n\nUveitis\nAbrilada ist indiziert zur Induktion (in Kombination mit Kortikosteroiden) und Erhaltung einer Remission bei erwachsenen Patienten mit Kortikosteroid-abhängiger nicht-infektiöser intermediärer Uveitis, posteriorer Uveitis oder Panuveitis, die nur unzureichend auf Kortikosteroide mit oder ohne Immunmodulatoren angesprochen haben oder die eine Kortikoid sparende Behandlung benötigen. Die Kombination mit Kortikosteroiden und/oder Immunmodulatoren richtet sich nach dem anatomischen und funktionellen Verlauf.",
      "legalStatusOfSupply" : {
        "coding" : [{
          "system" : "http://fhir.ch/ig/ch-epl/CodeSystem/ch-SMC-legal-status-of-supply",
          "code" : "756005022003",
          "display" : "Medicinal product subject to medical or veterinary prescription (B)"
        }]
      },
      "additionalMonitoringIndicator" : {
        "coding" : [{
          "system" : "http://fhir.ch/ig/ch-epl/CodeSystem/ch-SMC-additional-monitoring-indicator",
          "code" : "756005001003",
          "display" : "No Warning"
        }]
      },
      "pediatricUseIndicator" : {
        "coding" : [{
          "system" : "http://fhir.ch/ig/ch-epl/CodeSystem/ch-SMC-pediatric-use-indicator",
          "code" : "756005003001",
          "display" : "Authorised for the treatment in children"
        }]
      },
      "classification" : [{
        "coding" : [{
          "system" : "http://www.whocc.no/atc",
          "code" : "L04AB04"
        }]
      },
      {
        "coding" : [{
          "system" : "http://fhir.ch/ig/ch-epl/CodeSystem/ch-SMC-authorisation-category",
          "code" : "756005021024",
          "display" : "Extension for biosimilar"
        }]
      },
      {
        "coding" : [{
          "system" : "http://fhir.ch/ig/ch-epl/CodeSystem/ch-SMC-therapeuticproductcode",
          "code" : "756005004003",
          "display" : "Biologics"
        }]
      },
      {
        "coding" : [{
          "system" : "http://fhir.ch/ig/ch-epl/CodeSystem/ch-epl-foph-product-type",
          "code" : "756001003002",
          "display" : "Originator product"
        }]
      },
      {
        "coding" : [{
          "system" : "http://fhir.ch/ig/ch-epl/CodeSystem/ch-epl-foph-index-therapeuticus",
          "code" : "070000",
          "display" : "07. STOFFWECHSEL"
        },
        {
          "system" : "http://fhir.ch/ig/ch-epl/CodeSystem/ch-epl-foph-index-therapeuticus",
          "code" : "071500",
          "display" : "07.15. Immunosuppressive Stoffe"
        }]
      }],
      "attachedDocument" : [{
        "reference" : "DocumentReference/DocRef-FI-Abrilada"
      },
      {
        "reference" : "DocumentReference/DocRef-PI-Abrilada"
      }],
      "name" : [{
        "productName" : "ABRILADA Inj Lös 40 mg/0.8ml Fertpen 0.8 ml",
        "type" : {
          "coding" : [{
            "system" : "http://fhir.ch/ig/ch-epl/CodeSystem/ch-medicinal-product-name-type",
            "code" : "SMC",
            "display" : "Zugelassener Arzneimittelname"
          }]
        },
        "usage" : [{
          "country" : {
            "coding" : [{
              "system" : "urn:iso:std:iso:3166",
              "code" : "CH",
              "display" : "Switzerland"
            }]
          },
          "language" : {
            "coding" : [{
              "system" : "urn:ietf:bcp:47",
              "code" : "de-CH",
              "display" : "German (Switzerland)"
            }]
          }
        }]
      }]
    }
  },
  {
    "fullUrl" : "http://fhir.epl.bag.admin.ch/CHIDMPDocumentReference/DocRef-FI-Abrilada",
    "resource" : {
      "resourceType" : "DocumentReference",
      "id" : "DocRef-FI-Abrilada",
      "meta" : {
        "profile" : ["http://fhir.ch/ig/ch-epl/StructureDefinition/ch-idmp-documentreference"]
      },
      "language" : "de-CH",
      "text" : {
        "status" : "generated",
        "div" : "<div xmlns=\"http://www.w3.org/1999/xhtml\" xml:lang=\"de-CH\" lang=\"de-CH\"><a name=\"DocumentReference_DocRef-FI-Abrilada\"> </a><p class=\"res-header-id\"><b>Generated Narrative: DocumentReference DocRef-FI-Abrilada</b></p><a name=\"DocRef-FI-Abrilada\"> </a><a name=\"hcDocRef-FI-Abrilada\"> </a><div style=\"display: inline-block; background-color: #d9e0e7; padding: 6px; margin: 4px; border: 1px solid #8da1b4; border-radius: 5px; line-height: 60%\"><p style=\"margin-bottom: 0px\">Language: de-CH</p><p style=\"margin-bottom: 0px\">Profile: <a href=\"StructureDefinition-ch-idmp-documentreference.html\">CH IDMP DocumentReference</a></p></div><p><b>identifier</b>: <a href=\"NamingSystem-AttNo.html\" title=\"Temporary Namingsystem in this implementation guide until officially released by Swissmedic\">Application / Assessment Tracking Number</a>/123456789-initial submission-Example-klm-123</p><p><b>status</b>: Current</p><p><b>type</b>: <span title=\"Codes:{http://fhir.ch/ig/ch-epl/CodeSystem/ch-SMC-attached-document-type 756005007001}\">Fachinformation</span></p><p><b>date</b>: 2025-05-01 00:00:00+0000</p><blockquote><p><b>content</b></p><h3>Attachments</h3><table class=\"grid\"><tr><td style=\"display: none\">-</td><td><b>Url</b></td></tr><tr><td style=\"display: none\">*</td><td><a href=\"https://swissmedicinfo.ch/showText.aspx?textType=FI&amp;lang=DE&amp;authNr=67831&amp;supportMultipleResults=1\">https://swissmedicinfo.ch/showText.aspx?textType=FI&amp;lang=DE&amp;authNr=67831&amp;supportMultipleResults=1</a></td></tr></table></blockquote></div>"
      },
      "identifier" : [{
        "system" : "http://fhir.ch/ig/ch-epl/sid/attno",
        "value" : "123456789-initial submission-Example-klm-123"
      }],
      "status" : "current",
      "type" : {
        "coding" : [{
          "system" : "http://fhir.ch/ig/ch-epl/CodeSystem/ch-SMC-attached-document-type",
          "code" : "756005007001",
          "display" : "Fachinformation"
        }]
      },
      "date" : "2025-05-01T00:00:00Z",
      "content" : [{
        "attachment" : {
          "url" : "https://swissmedicinfo.ch/showText.aspx?textType=FI&lang=DE&authNr=67831&supportMultipleResults=1"
        }
      }]
    }
  },
  {
    "fullUrl" : "http://fhir.epl.bag.admin.ch/CHIDMPDocumentReference/DocRef-PI-Abrilada",
    "resource" : {
      "resourceType" : "DocumentReference",
      "id" : "DocRef-PI-Abrilada",
      "meta" : {
        "profile" : ["http://fhir.ch/ig/ch-epl/StructureDefinition/ch-idmp-documentreference"]
      },
      "language" : "de-CH",
      "text" : {
        "status" : "generated",
        "div" : "<div xmlns=\"http://www.w3.org/1999/xhtml\" xml:lang=\"de-CH\" lang=\"de-CH\"><a name=\"DocumentReference_DocRef-PI-Abrilada\"> </a><p class=\"res-header-id\"><b>Generated Narrative: DocumentReference DocRef-PI-Abrilada</b></p><a name=\"DocRef-PI-Abrilada\"> </a><a name=\"hcDocRef-PI-Abrilada\"> </a><div style=\"display: inline-block; background-color: #d9e0e7; padding: 6px; margin: 4px; border: 1px solid #8da1b4; border-radius: 5px; line-height: 60%\"><p style=\"margin-bottom: 0px\">Language: de-CH</p><p style=\"margin-bottom: 0px\">Profile: <a href=\"StructureDefinition-ch-idmp-documentreference.html\">CH IDMP DocumentReference</a></p></div><p><b>identifier</b>: <a href=\"NamingSystem-AttNo.html\" title=\"Temporary Namingsystem in this implementation guide until officially released by Swissmedic\">Application / Assessment Tracking Number</a>/123456789-initial submission-Example-hij-321</p><p><b>status</b>: Current</p><p><b>type</b>: <span title=\"Codes:{http://fhir.ch/ig/ch-epl/CodeSystem/ch-SMC-attached-document-type 756005007002}\">Patienteninformation</span></p><p><b>date</b>: 2025-05-01 00:00:00+0000</p><blockquote><p><b>content</b></p><h3>Attachments</h3><table class=\"grid\"><tr><td style=\"display: none\">-</td><td><b>Url</b></td></tr><tr><td style=\"display: none\">*</td><td><a href=\"https://swissmedicinfo.ch/showText.aspx?textType=PI&amp;lang=DE&amp;authNr=67831&amp;supportMultipleResults=1\">https://swissmedicinfo.ch/showText.aspx?textType=PI&amp;lang=DE&amp;authNr=67831&amp;supportMultipleResults=1</a></td></tr></table></blockquote></div>"
      },
      "identifier" : [{
        "system" : "http://fhir.ch/ig/ch-epl/sid/attno",
        "value" : "123456789-initial submission-Example-hij-321"
      }],
      "status" : "current",
      "type" : {
        "coding" : [{
          "system" : "http://fhir.ch/ig/ch-epl/CodeSystem/ch-SMC-attached-document-type",
          "code" : "756005007002",
          "display" : "Patienteninformation"
        }]
      },
      "date" : "2025-05-01T00:00:00Z",
      "content" : [{
        "attachment" : {
          "url" : "https://swissmedicinfo.ch/showText.aspx?textType=PI&lang=DE&authNr=67831&supportMultipleResults=1"
        }
      }]
    }
  },
  {
    "fullUrl" : "http://fhir.epl.bag.admin.ch/CHIDMPRegulatedAuthorisation/MA-6783101",
    "resource" : {
      "resourceType" : "RegulatedAuthorization",
      "id" : "MA-6783101",
      "meta" : {
        "profile" : ["http://fhir.ch/ig/ch-epl/StructureDefinition/ch-idmp-regulatedauthorization"]
      },
      "text" : {
        "status" : "generated",
        "div" : "<div xmlns=\"http://www.w3.org/1999/xhtml\"><a name=\"RegulatedAuthorization_MA-6783101\"> </a><p class=\"res-header-id\"><b>Generated Narrative: RegulatedAuthorization MA-6783101</b></p><a name=\"MA-6783101\"> </a><a name=\"hcMA-6783101\"> </a><div style=\"display: inline-block; background-color: #d9e0e7; padding: 6px; margin: 4px; border: 1px solid #8da1b4; border-radius: 5px; line-height: 60%\"><p style=\"margin-bottom: 0px\"/><p style=\"margin-bottom: 0px\">Profile: <a href=\"StructureDefinition-ch-idmp-regulatedauthorization.html\">IDMP RegulatedAuthorization</a></p></div><p><b>identifier</b>: <a href=\"NamingSystem-AuthNo.html\" title=\"Temporary Identifier in this implementation guide until officially released by Swissmedic\">Marketing Authorisation Number</a>/6783101</p><p><b>subject</b>: <a href=\"MedicinalProductDefinition-Abrilada-40mg-Pre-Filled-Pen.html\">MedicinalProductDefinition: extension = Solution for injection,Austausch Referenzpräparat/Biosimilar\nDie Behandlung mit ABRILADA bedarf der Kostengutsprache durch den Krankenversicherer nach vorgängiger Konsultation des Vertrauensarztes. Für die Behandlung mit ABRILADA ist keine neue Kostengutsprache nötig, wenn in derselben Indikation bereits eine Kostengutsprache für das Referenzpräparat oder ein anderes Biosimilar besteht.\n\nAktive rheumatoide Arthritis\nBehandlung mit ABRILADA, wenn die vorausgegangene antirheumatische Standardtherapie mit krankheitsmodifizierenden Antirheumatika (DMARDs) unzulänglich war.\n\nAktive polyartikuläre juvenile idiopathische Arthritis bei Kindern und Jugendlichen ab einem Körpergewicht von ≥ 30 kg\nBehandlung mit ABRILADA, wenn die vorausgegangene Standardtherapie mit krankheitsmodifizierenden Antirheumatika (DMARDs) unzulänglich war.\n\nPsoriasis-Arthritis\nBehandlung mit ABRILADA, wenn die vorausgegangene Standardtherapie mit krankheitsmodifizierenden Antirheumatika (DMARDs) unzulänglich war.\n\nAnkylosierende Spondylitis (Morbus Bechterew)\nBehandlung mit ABRILADA, wenn die vorausgegangene konventionelle Therapie unzulänglich war oder nicht vertragen wurde.\n\nAktiver Morbus Crohn\nBehandlung erwachsener Patienten mit ABRILADA, wenn die vorausgegangene konventionelle Therapie (z.B. mit Azathioprin, 6-Mercaptopurin oder Glukokortikoiden) unzulänglich war, sowie bei Patienten, die nicht mehr auf Infliximab ansprechen oder dieses nicht vertragen. Nach zwei Jahren ununterbrochener Therapie bedarf die Behandlung einer erneuten Kostengutsprache durch den Krankenversicherer nach vorgängiger Konsultation des Vertrauensarztes.\n\nModerate bis schwere Colitis ulcerosa\nBehandlung erwachsener Patienten mit ABRILADA, wenn die vorausgegangene konventionelle Therapie (z.B. mit Azathioprin, 6-Mercaptopurin oder Glukokortikoiden) unzulänglich war oder nicht vertragen wurde.\n\nDie Verschreibung von ABRILADA für die folgenden Behandlungen kann nur durch Fachärzte der Dermatologie oder dermatologische Universitätskliniken/ Polikliniken erfolgen:\n\nSchwere Plaque-Psoriasis\nBehandlung erwachsener Patienten mit schwerer Plaque-Psoriasis, bei denen eine Phototherapie oder eine der folgenden konventionellen systemischen Therapien (Ciclosporin, Methotrexat, Acitretin) keinen therapeutischen Erfolg gezeigt haben. Falls nach 16 Wochen kein therapeutischer Erfolg eingetreten ist, ist die Behandlung abzubrechen.\n\nAktive, mittelschwere bis schwere Hidradenitis suppurativa (Acne inversa)\nBehandlung erwachsener Patienten, wenn die vorausgegangene systemische Therapie mit Antibiotika unzulänglich war. Bei Patienten, die nach 12 Wochen kein Ansprechen nach HiSCR von mindestens 50% zeigen, ist die Behandlung abzubrechen. Nach 52 Wochen ununterbrochener Therapie bedarf die Behandlung einer erneuten Kostengutsprache durch den Krankenversicherer nach vorgängiger Konsultation des Vertrauensarztes.; identifier = http://fhir.ch/ig/ch-epl/sid/mpid#Medical Product Identifier#CH-7601001010604-6783101; indication = Rheumatoide Arthritis\nAbrilada ist indiziert zur Reduzierung der Anzeichen und Symptome sowie zur Verlangsamung der Progression struktureller Schäden und zur Verbesserung der körperlichen Funktionsfähigkeit bei erwachsenen Patienten mit einer mässig bis stark ausgeprägten aktiven rheumatoiden Arthritis, die nur unzureichend auf krankheitsmodifizierende Antirheumatika (DMARDs) angesprochen haben.\nAbrilada kann als Monotherapie oder in Kombination mit Methotrexat bzw. anderen krankheitsmodifizierenden Antirheumatika eingesetzt werden, wobei aber die Kombination von Adalimumab mit Ciclosporin, Azathioprin und anderen anti-TNF-α-Therapien nicht untersucht worden ist.\nBei Patienten, bei denen eine mässig bis stark ausgeprägte rheumatoide Arthritis erst kürzlich (&lt;3 Jahre) diagnostiziert wurde und die zuvor nicht mit Methotrexat behandelt worden war, konnte eine Wirksamkeit von Adalimumab in Kombination mit Methotrexat gezeigt werden.\n\nPolyartikuläre juvenile idiopathische Arthritis (ab 30 kg Körpergewicht)\nAbrilada ist in Kombination mit Methotrexat indiziert zur Behandlung der aktiven polyartikulären juvenilen idiopathischen Arthritis bei Kindern und Jugendlichen ab 30 kg Körpergewicht, die nur unzureichend auf ein oder mehrere krankheitsmodifizierende Antirheumatika (DMARDs), einschliesslich Methotrexat, angesprochen haben oder eine solche Therapie nicht tolerieren. Abrilada kann im Falle einer Unverträglichkeit gegenüber Methotrexat oder, wenn die weitere Behandlung mit Methotrexat nicht möglich ist, als Monotherapie angewendet werden. Bei Kindern, die jünger als 4 Jahre sind, wurde Adalimumab nicht untersucht.\n\nPsoriasis-Arthritis\nAbrilada ist indiziert zur Reduzierung der Anzeichen und Symptome der Psoriasis-Arthritis bei Patienten mit ungenügendem Ansprechen auf krankheitsmodifizierende Antirheumatika. Abrilada reduziert die Progressionsrate struktureller Schäden und verbessert die körperliche Funktionsfähigkeit bei Patienten mit der polyartikulären, symmetrischen Form der Erkrankung. Abrilada kann als Monotherapie oder in Kombination mit krankheitsmodifizierenden Antirheumatika angewendet werden.\n\nAnkylosierende Spondylitis (Morbus Bechterew)\nAbrilada ist indiziert zur Behandlung von erwachsenen Patienten mit aktiver ankylosierender Spondylitis, die nur unzureichend auf herkömmliche Therapien angesprochen haben.\n\nMorbus Crohn\nAbrilada ist indiziert zur Behandlung von erwachsenen Patienten mit einem Morbus Crohn mit mässiger bis hoher Krankheitsaktivität, die nur unzureichend auf herkömmliche Therapien angesprochen haben, sowie bei erwachsenen Patienten, die nicht mehr auf Infliximab ansprechen oder dieses nicht vertragen.\n\nColitis ulcerosa\nAbrilada ist indiziert zur Behandlung der mittelschweren bis schweren aktiven Colitis ulcerosa bei erwachsenen Patienten, die auf die herkömmliche Therapie, einschliesslich Glukokortikoide und/oder 6-Mercaptopurin (6-MP) oder Azathioprin (AZA), unzureichend angesprochen haben oder die eine Unverträglichkeit gegen eine solche Therapie haben oder bei denen eine solche Therapie kontraindiziert ist.\n\nPsoriasis\nAbrilada ist als Monotherapie indiziert zur Behandlung von erwachsenen Patienten mit mittelschwerer bis schwerer, chronischer Plaque-Psoriasis, bei denen eine systemische Therapie oder eine PUVA-Therapie angezeigt ist.\n\nPsoriasis bei Kindern und Jugendlichen (ab 30 kg Körpergewicht)\nAbrilada ist indiziert zur Behandlung der schweren chronischen Plaque-Psoriasis bei Kindern und Jugendlichen mit einem Körpergewicht ≥30 kg, die nur unzureichend auf Phototherapien oder systemische Vortherapien angesprochen haben oder für die diese Therapien nicht geeignet sind.\n\nHidradenitis suppurativa (Acne inversa)\nAbrilada ist indiziert zur Behandlung von erwachsenen Patienten mit aktiver mittelschwerer bis schwerer Hidradenitis suppurativa (Acne inversa), die unzureichend auf eine systemische Antibiotikatherapie angesprochen haben.\n\nUveitis\nAbrilada ist indiziert zur Induktion (in Kombination mit Kortikosteroiden) und Erhaltung einer Remission bei erwachsenen Patienten mit Kortikosteroid-abhängiger nicht-infektiöser intermediärer Uveitis, posteriorer Uveitis oder Panuveitis, die nur unzureichend auf Kortikosteroide mit oder ohne Immunmodulatoren angesprochen haben oder die eine Kortikoid sparende Behandlung benötigen. Die Kombination mit Kortikosteroiden und/oder Immunmodulatoren richtet sich nach dem anatomischen und funktionellen Verlauf.; legalStatusOfSupply = Medicinal product subject to medical or veterinary prescription (B); additionalMonitoringIndicator = No Warning; pediatricUseIndicator = Authorised for the treatment in children; classification = adalimumab,Extension for biosimilar,Biologics,Originator product,07. STOFFWECHSEL</a></p><p><b>type</b>: <span title=\"Codes:{http://fhir.ch/ig/ch-epl/CodeSystem/ch-authorisation-type 756000002001}\">Marketing Authorisation</span></p><p><b>region</b>: <span title=\"Codes:{urn:iso:std:iso:3166 CH}\">Switzerland</span></p><p><b>status</b>: <span title=\"Codes:{http://fhir.ch/ig/ch-epl/CodeSystem/ch-SMC-authorisation-status 756005023007}\">valid</span></p><p><b>statusDate</b>: 2020-02-12</p><p><b>holder</b>: <a href=\"#hcMA-6783101/holder-Pfizer-AG\">Organization Pfizer AG</a></p><p><b>regulator</b>: <a href=\"#hcMA-6783101/regulator-SMC\">Organization SMC</a></p><hr/><blockquote><p class=\"res-header-id\"><b>Generated Narrative: Organization #holder-Pfizer-AG</b></p><a name=\"MA-6783101/holder-Pfizer-AG\"> </a><a name=\"hcMA-6783101/holder-Pfizer-AG\"> </a><div style=\"display: inline-block; background-color: #d9e0e7; padding: 6px; margin: 4px; border: 1px solid #8da1b4; border-radius: 5px; line-height: 60%\"><p style=\"margin-bottom: 0px\"/><p style=\"margin-bottom: 0px\">Profile: <a href=\"StructureDefinition-ch-epl-organization.html\">CH EPL Organization</a></p></div><p><b>identifier</b>: <a href=\"NamingSystem-LOC.html\" title=\"Identifier holding a number for LocID (Location Identifier of the European Medicines Agency - Organisation Management System OMS)\">LOC Identifier</a>/100015286, <a href=\"NamingSystem-GLN.html\" title=\"Identifier holding a number for GLN (Global Location Number)\">GLN Identifier</a>/7601001010604</p><p><b>name</b>: Pfizer AG</p></blockquote><hr/><blockquote><p class=\"res-header-id\"><b>Generated Narrative: Organization #regulator-SMC</b></p><a name=\"MA-6783101/regulator-SMC\"> </a><a name=\"hcMA-6783101/regulator-SMC\"> </a><div style=\"display: inline-block; background-color: #d9e0e7; padding: 6px; margin: 4px; border: 1px solid #8da1b4; border-radius: 5px; line-height: 60%\"><p style=\"margin-bottom: 0px\"/><p style=\"margin-bottom: 0px\">Profile: <a href=\"StructureDefinition-ch-epl-organization.html\">CH EPL Organization</a></p></div><p><b>identifier</b>: <a href=\"NamingSystem-LOC.html\" title=\"Identifier holding a number for LocID (Location Identifier of the European Medicines Agency - Organisation Management System OMS)\">LOC Identifier</a>/100010911, <a href=\"NamingSystem-GLN.html\" title=\"Identifier holding a number for GLN (Global Location Number)\">GLN Identifier</a>/7601001398511</p><p><b>name</b>: SMC</p></blockquote></div>"
      },
      "contained" : [{
        "resourceType" : "Organization",
        "id" : "holder-Pfizer-AG",
        "meta" : {
          "profile" : ["http://fhir.ch/ig/ch-epl/StructureDefinition/ch-epl-organization"]
        },
        "identifier" : [{
          "system" : "urn:oid:1.2.276.0.76",
          "value" : "100015286"
        },
        {
          "system" : "urn:oid:2.51.1.3",
          "value" : "7601001010604"
        }],
        "name" : "Pfizer AG"
      },
      {
        "resourceType" : "Organization",
        "id" : "regulator-SMC",
        "meta" : {
          "profile" : ["http://fhir.ch/ig/ch-epl/StructureDefinition/ch-epl-organization"]
        },
        "identifier" : [{
          "system" : "urn:oid:1.2.276.0.76",
          "value" : "100010911"
        },
        {
          "system" : "urn:oid:2.51.1.3",
          "value" : "7601001398511"
        }],
        "name" : "SMC"
      }],
      "identifier" : [{
        "system" : "http://fhir.ch/ig/ch-epl/sid/authno",
        "value" : "6783101"
      }],
      "subject" : [{
        "reference" : "MedicinalProductDefinition/Abrilada-40mg-Pre-Filled-Pen"
      }],
      "type" : {
        "coding" : [{
          "system" : "http://fhir.ch/ig/ch-epl/CodeSystem/ch-authorisation-type",
          "code" : "756000002001",
          "display" : "Marketing Authorisation"
        }]
      },
      "region" : [{
        "coding" : [{
          "system" : "urn:iso:std:iso:3166",
          "code" : "CH",
          "display" : "Switzerland"
        }]
      }],
      "status" : {
        "coding" : [{
          "system" : "http://fhir.ch/ig/ch-epl/CodeSystem/ch-SMC-authorisation-status",
          "code" : "756005023007",
          "display" : "valid"
        }]
      },
      "statusDate" : "2020-02-12",
      "holder" : {
        "reference" : "#holder-Pfizer-AG"
      },
      "regulator" : {
        "reference" : "#regulator-SMC"
      }
    }
  },
  {
    "fullUrl" : "http://fhir.epl.bag.admin.ch/CHIDMPPackagedProductDefinition/PMP-Abrilada-40mg-0.8ml-1-Pre-Filled-Pen",
    "resource" : {
      "resourceType" : "PackagedProductDefinition",
      "id" : "PMP-Abrilada-40mg-0.8ml-1-Pre-Filled-Pen",
      "meta" : {
        "profile" : ["http://fhir.ch/ig/ch-epl/StructureDefinition/ch-idmp-packagedproductdefinition"]
      },
      "text" : {
        "status" : "generated",
        "div" : "<div xmlns=\"http://www.w3.org/1999/xhtml\"><a name=\"PackagedProductDefinition_PMP-Abrilada-40mg-0.8ml-1-Pre-Filled-Pen\"> </a><p class=\"res-header-id\"><b>Generated Narrative: PackagedProductDefinition PMP-Abrilada-40mg-0.8ml-1-Pre-Filled-Pen</b></p><a name=\"PMP-Abrilada-40mg-0.8ml-1-Pre-Filled-Pen\"> </a><a name=\"hcPMP-Abrilada-40mg-0.8ml-1-Pre-Filled-Pen\"> </a><div style=\"display: inline-block; background-color: #d9e0e7; padding: 6px; margin: 4px; border: 1px solid #8da1b4; border-radius: 5px; line-height: 60%\"><p style=\"margin-bottom: 0px\"/><p style=\"margin-bottom: 0px\">Profile: <a href=\"StructureDefinition-ch-idmp-packagedproductdefinition.html\">IDMP PackagedProductDefinition</a></p></div><p><b>identifier</b>: <a href=\"NamingSystem-PCID.html\" title=\"Temporary Identifier in this implementation guide until officially released by Swissmedic\">Clinical Product Identifier</a>/CH-7601001010604-6783101-001</p><p><b>packageFor</b>: <a href=\"MedicinalProductDefinition-Abrilada-40mg-Pre-Filled-Pen.html\">MedicinalProductDefinition: extension = Solution for injection,Austausch Referenzpräparat/Biosimilar\nDie Behandlung mit ABRILADA bedarf der Kostengutsprache durch den Krankenversicherer nach vorgängiger Konsultation des Vertrauensarztes. Für die Behandlung mit ABRILADA ist keine neue Kostengutsprache nötig, wenn in derselben Indikation bereits eine Kostengutsprache für das Referenzpräparat oder ein anderes Biosimilar besteht.\n\nAktive rheumatoide Arthritis\nBehandlung mit ABRILADA, wenn die vorausgegangene antirheumatische Standardtherapie mit krankheitsmodifizierenden Antirheumatika (DMARDs) unzulänglich war.\n\nAktive polyartikuläre juvenile idiopathische Arthritis bei Kindern und Jugendlichen ab einem Körpergewicht von ≥ 30 kg\nBehandlung mit ABRILADA, wenn die vorausgegangene Standardtherapie mit krankheitsmodifizierenden Antirheumatika (DMARDs) unzulänglich war.\n\nPsoriasis-Arthritis\nBehandlung mit ABRILADA, wenn die vorausgegangene Standardtherapie mit krankheitsmodifizierenden Antirheumatika (DMARDs) unzulänglich war.\n\nAnkylosierende Spondylitis (Morbus Bechterew)\nBehandlung mit ABRILADA, wenn die vorausgegangene konventionelle Therapie unzulänglich war oder nicht vertragen wurde.\n\nAktiver Morbus Crohn\nBehandlung erwachsener Patienten mit ABRILADA, wenn die vorausgegangene konventionelle Therapie (z.B. mit Azathioprin, 6-Mercaptopurin oder Glukokortikoiden) unzulänglich war, sowie bei Patienten, die nicht mehr auf Infliximab ansprechen oder dieses nicht vertragen. Nach zwei Jahren ununterbrochener Therapie bedarf die Behandlung einer erneuten Kostengutsprache durch den Krankenversicherer nach vorgängiger Konsultation des Vertrauensarztes.\n\nModerate bis schwere Colitis ulcerosa\nBehandlung erwachsener Patienten mit ABRILADA, wenn die vorausgegangene konventionelle Therapie (z.B. mit Azathioprin, 6-Mercaptopurin oder Glukokortikoiden) unzulänglich war oder nicht vertragen wurde.\n\nDie Verschreibung von ABRILADA für die folgenden Behandlungen kann nur durch Fachärzte der Dermatologie oder dermatologische Universitätskliniken/ Polikliniken erfolgen:\n\nSchwere Plaque-Psoriasis\nBehandlung erwachsener Patienten mit schwerer Plaque-Psoriasis, bei denen eine Phototherapie oder eine der folgenden konventionellen systemischen Therapien (Ciclosporin, Methotrexat, Acitretin) keinen therapeutischen Erfolg gezeigt haben. Falls nach 16 Wochen kein therapeutischer Erfolg eingetreten ist, ist die Behandlung abzubrechen.\n\nAktive, mittelschwere bis schwere Hidradenitis suppurativa (Acne inversa)\nBehandlung erwachsener Patienten, wenn die vorausgegangene systemische Therapie mit Antibiotika unzulänglich war. Bei Patienten, die nach 12 Wochen kein Ansprechen nach HiSCR von mindestens 50% zeigen, ist die Behandlung abzubrechen. Nach 52 Wochen ununterbrochener Therapie bedarf die Behandlung einer erneuten Kostengutsprache durch den Krankenversicherer nach vorgängiger Konsultation des Vertrauensarztes.; identifier = http://fhir.ch/ig/ch-epl/sid/mpid#Medical Product Identifier#CH-7601001010604-6783101; indication = Rheumatoide Arthritis\nAbrilada ist indiziert zur Reduzierung der Anzeichen und Symptome sowie zur Verlangsamung der Progression struktureller Schäden und zur Verbesserung der körperlichen Funktionsfähigkeit bei erwachsenen Patienten mit einer mässig bis stark ausgeprägten aktiven rheumatoiden Arthritis, die nur unzureichend auf krankheitsmodifizierende Antirheumatika (DMARDs) angesprochen haben.\nAbrilada kann als Monotherapie oder in Kombination mit Methotrexat bzw. anderen krankheitsmodifizierenden Antirheumatika eingesetzt werden, wobei aber die Kombination von Adalimumab mit Ciclosporin, Azathioprin und anderen anti-TNF-α-Therapien nicht untersucht worden ist.\nBei Patienten, bei denen eine mässig bis stark ausgeprägte rheumatoide Arthritis erst kürzlich (&lt;3 Jahre) diagnostiziert wurde und die zuvor nicht mit Methotrexat behandelt worden war, konnte eine Wirksamkeit von Adalimumab in Kombination mit Methotrexat gezeigt werden.\n\nPolyartikuläre juvenile idiopathische Arthritis (ab 30 kg Körpergewicht)\nAbrilada ist in Kombination mit Methotrexat indiziert zur Behandlung der aktiven polyartikulären juvenilen idiopathischen Arthritis bei Kindern und Jugendlichen ab 30 kg Körpergewicht, die nur unzureichend auf ein oder mehrere krankheitsmodifizierende Antirheumatika (DMARDs), einschliesslich Methotrexat, angesprochen haben oder eine solche Therapie nicht tolerieren. Abrilada kann im Falle einer Unverträglichkeit gegenüber Methotrexat oder, wenn die weitere Behandlung mit Methotrexat nicht möglich ist, als Monotherapie angewendet werden. Bei Kindern, die jünger als 4 Jahre sind, wurde Adalimumab nicht untersucht.\n\nPsoriasis-Arthritis\nAbrilada ist indiziert zur Reduzierung der Anzeichen und Symptome der Psoriasis-Arthritis bei Patienten mit ungenügendem Ansprechen auf krankheitsmodifizierende Antirheumatika. Abrilada reduziert die Progressionsrate struktureller Schäden und verbessert die körperliche Funktionsfähigkeit bei Patienten mit der polyartikulären, symmetrischen Form der Erkrankung. Abrilada kann als Monotherapie oder in Kombination mit krankheitsmodifizierenden Antirheumatika angewendet werden.\n\nAnkylosierende Spondylitis (Morbus Bechterew)\nAbrilada ist indiziert zur Behandlung von erwachsenen Patienten mit aktiver ankylosierender Spondylitis, die nur unzureichend auf herkömmliche Therapien angesprochen haben.\n\nMorbus Crohn\nAbrilada ist indiziert zur Behandlung von erwachsenen Patienten mit einem Morbus Crohn mit mässiger bis hoher Krankheitsaktivität, die nur unzureichend auf herkömmliche Therapien angesprochen haben, sowie bei erwachsenen Patienten, die nicht mehr auf Infliximab ansprechen oder dieses nicht vertragen.\n\nColitis ulcerosa\nAbrilada ist indiziert zur Behandlung der mittelschweren bis schweren aktiven Colitis ulcerosa bei erwachsenen Patienten, die auf die herkömmliche Therapie, einschliesslich Glukokortikoide und/oder 6-Mercaptopurin (6-MP) oder Azathioprin (AZA), unzureichend angesprochen haben oder die eine Unverträglichkeit gegen eine solche Therapie haben oder bei denen eine solche Therapie kontraindiziert ist.\n\nPsoriasis\nAbrilada ist als Monotherapie indiziert zur Behandlung von erwachsenen Patienten mit mittelschwerer bis schwerer, chronischer Plaque-Psoriasis, bei denen eine systemische Therapie oder eine PUVA-Therapie angezeigt ist.\n\nPsoriasis bei Kindern und Jugendlichen (ab 30 kg Körpergewicht)\nAbrilada ist indiziert zur Behandlung der schweren chronischen Plaque-Psoriasis bei Kindern und Jugendlichen mit einem Körpergewicht ≥30 kg, die nur unzureichend auf Phototherapien oder systemische Vortherapien angesprochen haben oder für die diese Therapien nicht geeignet sind.\n\nHidradenitis suppurativa (Acne inversa)\nAbrilada ist indiziert zur Behandlung von erwachsenen Patienten mit aktiver mittelschwerer bis schwerer Hidradenitis suppurativa (Acne inversa), die unzureichend auf eine systemische Antibiotikatherapie angesprochen haben.\n\nUveitis\nAbrilada ist indiziert zur Induktion (in Kombination mit Kortikosteroiden) und Erhaltung einer Remission bei erwachsenen Patienten mit Kortikosteroid-abhängiger nicht-infektiöser intermediärer Uveitis, posteriorer Uveitis oder Panuveitis, die nur unzureichend auf Kortikosteroide mit oder ohne Immunmodulatoren angesprochen haben oder die eine Kortikoid sparende Behandlung benötigen. Die Kombination mit Kortikosteroiden und/oder Immunmodulatoren richtet sich nach dem anatomischen und funktionellen Verlauf.; legalStatusOfSupply = Medicinal product subject to medical or veterinary prescription (B); additionalMonitoringIndicator = No Warning; pediatricUseIndicator = Authorised for the treatment in children; classification = adalimumab,Extension for biosimilar,Biologics,Originator product,07. STOFFWECHSEL</a></p><p><b>containedItemQuantity</b>: 1 Pre-filled pen<span style=\"background: LightGoldenRodYellow\"> (Details: EDQM - Standard Terms  code30050000 = 'Pre-filled pen')</span></p><p><b>description</b>: </p><div><p>ABRILADA Inj Lös 40 mg/0.8ml Fertpen 1 x 0.8 ml</p>\n</div><h3>LegalStatusOfSupplies</h3><table class=\"grid\"><tr><td style=\"display: none\">-</td><td><b>Code</b></td></tr><tr><td style=\"display: none\">*</td><td><span title=\"Codes:{http://fhir.ch/ig/ch-epl/CodeSystem/ch-SMC-legal-status-of-supply 756005022003}\">Medicinal product subject to medical or veterinary prescription (B)</span></td></tr></table><blockquote><p><b>packaging</b></p><p><b>identifier</b>: <a href=\"NamingSystem-GTIN.html\" title=\"GS1 defines trade items as products or services that are priced, ordered or invoiced at any point in the supply chain.\">Global Trade Item Number</a>/7680678310019</p><p><b>type</b>: <span title=\"Codes:{http://standardterms.edqm.eu 30009000}\">Box</span></p><p><b>quantity</b>: 1</p><h3>ShelfLifeStorages</h3><table class=\"grid\"><tr><td style=\"display: none\">-</td><td><b>Type</b></td><td><b>Period[x]</b></td><td><b>SpecialPrecautionsForStorage</b></td></tr><tr><td style=\"display: none\">*</td><td><span title=\"Codes:{http://spor.ema.europa.eu/v1/lists/100000073343 100000073406}\">Shelf life from manufacturing time</span></td><td> </td><td><span title=\"Codes:{http://fhir.ch/ig/ch-epl/CodeSystem/ch-SMC-special-precautions-for-storage 756005042009}\">Do not store above 30°C</span></td></tr><tr><td style=\"display: none\">*</td><td> </td><td> </td><td><span title=\"Codes:{http://fhir.ch/ig/ch-epl/CodeSystem/ch-SMC-special-precautions-for-storage 756005042004}\">protect from light</span></td></tr><tr><td style=\"display: none\">*</td><td> </td><td> </td><td><span title=\"Codes:{http://fhir.ch/ig/ch-epl/CodeSystem/ch-SMC-special-precautions-for-storage 756005042011}\">Store in the original container</span></td></tr><tr><td style=\"display: none\">*</td><td> </td><td> </td><td><span title=\"Codes:{http://fhir.ch/ig/ch-epl/CodeSystem/ch-SMC-special-precautions-for-storage 756005042011}\">Store in the original container</span></td></tr><tr><td style=\"display: none\">*</td><td><span title=\"Codes:{http://spor.ema.europa.eu/v1/lists/100000073343 100000073403}\">Shelf life of the medicinal product as packaged for sale</span></td><td>No display for Duration  (value: 30; unit: day; system: http://unitsofmeasure.org; code: d)</td><td> </td></tr></table></blockquote></div>"
      },
      "identifier" : [{
        "system" : "http://fhir.ch/ig/ch-epl/sid/pcid",
        "value" : "CH-7601001010604-6783101-001"
      }],
      "packageFor" : [{
        "reference" : "MedicinalProductDefinition/Abrilada-40mg-Pre-Filled-Pen"
      }],
      "containedItemQuantity" : [{
        "value" : 1,
        "unit" : "Pre-filled pen",
        "system" : "http://standardterms.edqm.eu",
        "code" : "30050000"
      }],
      "description" : "ABRILADA Inj Lös 40 mg/0.8ml Fertpen 1 x 0.8 ml",
      "legalStatusOfSupply" : [{
        "code" : {
          "coding" : [{
            "system" : "http://fhir.ch/ig/ch-epl/CodeSystem/ch-SMC-legal-status-of-supply",
            "code" : "756005022003",
            "display" : "Medicinal product subject to medical or veterinary prescription (B)"
          }]
        }
      }],
      "packaging" : {
        "identifier" : [{
          "system" : "urn:oid:2.51.1.1",
          "value" : "7680678310019"
        }],
        "type" : {
          "coding" : [{
            "system" : "http://standardterms.edqm.eu",
            "code" : "30009000",
            "display" : "Box"
          }]
        },
        "quantity" : 1,
        "shelfLifeStorage" : [{
          "type" : {
            "coding" : [{
              "system" : "http://spor.ema.europa.eu/v1/lists/100000073343",
              "code" : "100000073406",
              "display" : "Shelf life from manufacturing time"
            }]
          },
          "specialPrecautionsForStorage" : [{
            "coding" : [{
              "system" : "http://fhir.ch/ig/ch-epl/CodeSystem/ch-SMC-special-precautions-for-storage",
              "code" : "756005042009",
              "display" : "Do not store above 30°C"
            }]
          }]
        },
        {
          "specialPrecautionsForStorage" : [{
            "coding" : [{
              "system" : "http://fhir.ch/ig/ch-epl/CodeSystem/ch-SMC-special-precautions-for-storage",
              "code" : "756005042004",
              "display" : "protect from light"
            }]
          }]
        },
        {
          "specialPrecautionsForStorage" : [{
            "coding" : [{
              "system" : "http://fhir.ch/ig/ch-epl/CodeSystem/ch-SMC-special-precautions-for-storage",
              "code" : "756005042011",
              "display" : "Store in the original container"
            }]
          }]
        },
        {
          "specialPrecautionsForStorage" : [{
            "coding" : [{
              "system" : "http://fhir.ch/ig/ch-epl/CodeSystem/ch-SMC-special-precautions-for-storage",
              "code" : "756005042011",
              "display" : "Store in the original container"
            }]
          }]
        },
        {
          "type" : {
            "coding" : [{
              "system" : "http://spor.ema.europa.eu/v1/lists/100000073343",
              "code" : "100000073403",
              "display" : "Shelf life of the medicinal product as packaged for sale"
            }]
          },
          "periodDuration" : {
            "value" : 30,
            "unit" : "day",
            "system" : "http://unitsofmeasure.org",
            "code" : "d"
          }
        }]
      }
    }
  },
  {
    "fullUrl" : "http://fhir.epl.bag.admin.ch/CHIDMPRegulatedAuthorisation/MA-67831001",
    "resource" : {
      "resourceType" : "RegulatedAuthorization",
      "id" : "MA-67831001",
      "meta" : {
        "profile" : ["http://fhir.ch/ig/ch-epl/StructureDefinition/ch-idmp-regulatedauthorization"]
      },
      "text" : {
        "status" : "generated",
        "div" : "<div xmlns=\"http://www.w3.org/1999/xhtml\"><a name=\"RegulatedAuthorization_MA-67831001\"> </a><p class=\"res-header-id\"><b>Generated Narrative: RegulatedAuthorization MA-67831001</b></p><a name=\"MA-67831001\"> </a><a name=\"hcMA-67831001\"> </a><div style=\"display: inline-block; background-color: #d9e0e7; padding: 6px; margin: 4px; border: 1px solid #8da1b4; border-radius: 5px; line-height: 60%\"><p style=\"margin-bottom: 0px\"/><p style=\"margin-bottom: 0px\">Profile: <a href=\"StructureDefinition-ch-idmp-regulatedauthorization.html\">IDMP RegulatedAuthorization</a></p></div><p><b>identifier</b>: <a href=\"NamingSystem-AuthNo.html\" title=\"Temporary Identifier in this implementation guide until officially released by Swissmedic\">Marketing Authorisation Number</a>/66231001</p><p><b>subject</b>: <a href=\"PackagedProductDefinition-PMP-Abrilada-40mg-0.8ml-1-Pre-Filled-Pen.html\">PackagedProductDefinition: identifier = http://fhir.ch/ig/ch-epl/sid/pcid#Clinical Product Identifier#CH-7601001010604-6783101-001; containedItemQuantity = 1 Pre-filled pen; description = ABRILADA Inj Lös 40 mg/0.8ml Fertpen 1 x 0.8 ml</a></p><p><b>type</b>: <span title=\"Codes:{http://fhir.ch/ig/ch-epl/CodeSystem/ch-authorisation-type 756000002001}\">Marketing Authorisation</span></p><p><b>region</b>: <span title=\"Codes:{urn:iso:std:iso:3166 CH}\">Switzerland</span></p><p><b>status</b>: <span title=\"Codes:{http://fhir.ch/ig/ch-epl/CodeSystem/ch-SMC-authorisation-status 756005023007}\">valid</span></p><p><b>statusDate</b>: 2020-02-12</p><p><b>holder</b>: <a href=\"#hcMA-67831001/holder-Pfizer-AG\">Organization Pfizer AG</a></p><p><b>regulator</b>: <a href=\"#hcMA-67831001/regulator-SMC\">Organization SMC</a></p><hr/><blockquote><p class=\"res-header-id\"><b>Generated Narrative: Organization #holder-Pfizer-AG</b></p><a name=\"MA-67831001/holder-Pfizer-AG\"> </a><a name=\"hcMA-67831001/holder-Pfizer-AG\"> </a><div style=\"display: inline-block; background-color: #d9e0e7; padding: 6px; margin: 4px; border: 1px solid #8da1b4; border-radius: 5px; line-height: 60%\"><p style=\"margin-bottom: 0px\"/><p style=\"margin-bottom: 0px\">Profile: <a href=\"StructureDefinition-ch-epl-organization.html\">CH EPL Organization</a></p></div><p><b>identifier</b>: <a href=\"NamingSystem-LOC.html\" title=\"Identifier holding a number for LocID (Location Identifier of the European Medicines Agency - Organisation Management System OMS)\">LOC Identifier</a>/100015286, <a href=\"NamingSystem-GLN.html\" title=\"Identifier holding a number for GLN (Global Location Number)\">GLN Identifier</a>/7601001010604</p><p><b>name</b>: Pfizer AG</p></blockquote><hr/><blockquote><p class=\"res-header-id\"><b>Generated Narrative: Organization #regulator-SMC</b></p><a name=\"MA-67831001/regulator-SMC\"> </a><a name=\"hcMA-67831001/regulator-SMC\"> </a><div style=\"display: inline-block; background-color: #d9e0e7; padding: 6px; margin: 4px; border: 1px solid #8da1b4; border-radius: 5px; line-height: 60%\"><p style=\"margin-bottom: 0px\"/><p style=\"margin-bottom: 0px\">Profile: <a href=\"StructureDefinition-ch-epl-organization.html\">CH EPL Organization</a></p></div><p><b>identifier</b>: <a href=\"NamingSystem-LOC.html\" title=\"Identifier holding a number for LocID (Location Identifier of the European Medicines Agency - Organisation Management System OMS)\">LOC Identifier</a>/100010911, <a href=\"NamingSystem-GLN.html\" title=\"Identifier holding a number for GLN (Global Location Number)\">GLN Identifier</a>/7601001398511</p><p><b>name</b>: SMC</p></blockquote></div>"
      },
      "contained" : [{
        "resourceType" : "Organization",
        "id" : "holder-Pfizer-AG",
        "meta" : {
          "profile" : ["http://fhir.ch/ig/ch-epl/StructureDefinition/ch-epl-organization"]
        },
        "identifier" : [{
          "system" : "urn:oid:1.2.276.0.76",
          "value" : "100015286"
        },
        {
          "system" : "urn:oid:2.51.1.3",
          "value" : "7601001010604"
        }],
        "name" : "Pfizer AG"
      },
      {
        "resourceType" : "Organization",
        "id" : "regulator-SMC",
        "meta" : {
          "profile" : ["http://fhir.ch/ig/ch-epl/StructureDefinition/ch-epl-organization"]
        },
        "identifier" : [{
          "system" : "urn:oid:1.2.276.0.76",
          "value" : "100010911"
        },
        {
          "system" : "urn:oid:2.51.1.3",
          "value" : "7601001398511"
        }],
        "name" : "SMC"
      }],
      "identifier" : [{
        "system" : "http://fhir.ch/ig/ch-epl/sid/authno",
        "value" : "66231001"
      }],
      "subject" : [{
        "reference" : "PackagedProductDefinition/PMP-Abrilada-40mg-0.8ml-1-Pre-Filled-Pen"
      }],
      "type" : {
        "coding" : [{
          "system" : "http://fhir.ch/ig/ch-epl/CodeSystem/ch-authorisation-type",
          "code" : "756000002001",
          "display" : "Marketing Authorisation"
        }]
      },
      "region" : [{
        "coding" : [{
          "system" : "urn:iso:std:iso:3166",
          "code" : "CH",
          "display" : "Switzerland"
        }]
      }],
      "status" : {
        "coding" : [{
          "system" : "http://fhir.ch/ig/ch-epl/CodeSystem/ch-SMC-authorisation-status",
          "code" : "756005023007",
          "display" : "valid"
        }]
      },
      "statusDate" : "2020-02-12",
      "holder" : {
        "reference" : "#holder-Pfizer-AG"
      },
      "regulator" : {
        "reference" : "#regulator-SMC"
      }
    }
  },
  {
    "fullUrl" : "http://fhir.epl.bag.admin.ch/CHIDMPRegulatedAuthorisation/FOPH-21203-1-Pre-Filled-Pen",
    "resource" : {
      "resourceType" : "RegulatedAuthorization",
      "id" : "FOPH-21203-1-Pre-Filled-Pen",
      "text" : {
        "status" : "extensions",
        "div" : "<div xmlns=\"http://www.w3.org/1999/xhtml\"><a name=\"RegulatedAuthorization_FOPH-21203-1-Pre-Filled-Pen\"> </a><p class=\"res-header-id\"><b>Generated Narrative: RegulatedAuthorization FOPH-21203-1-Pre-Filled-Pen</b></p><a name=\"FOPH-21203-1-Pre-Filled-Pen\"> </a><a name=\"hcFOPH-21203-1-Pre-Filled-Pen\"> </a><blockquote><p><b>CH - EPL Reimbursement SL</b></p><ul><li>FOPHDossierNumber: <a href=\"NamingSystem-Dossier.html\" title=\"Identifier holding the Dossier number of FOPH\">FOPH Dossier Number</a>/21203</li><li>status: <span title=\"Codes:{http://fhir.ch/ig/ch-epl/CodeSystem/ch-epl-foph-reimbursement-status 756001021001}\">Reimbursed</span></li><li>statusDate: 2021-06-01</li><li>expiryDate: 2100-12-31</li><li>listingStatus: <span title=\"Codes:{http://fhir.ch/ig/ch-epl/CodeSystem/ch-epl-foph-listing-status 756001002001}\">Listed</span></li><li>listingPeriod: 2021-06-01 --&gt; 2100-12-31</li><li>firstListingDate: 2021-06-01</li><li>costShare: 10</li><li>productType: <span title=\"Codes:{http://fhir.ch/ig/ch-epl/CodeSystem/ch-epl-foph-product-type 756001003002}\">Originator product</span></li><li>gamme: <span title=\"Codes:{http://fhir.ch/ig/ch-epl/CodeSystem/ch-epl-foph-gamme 756002004002}\">Parenteral</span></li></ul></blockquote><blockquote><p><b>CH - EPL Product Price</b></p><ul><li>value: <span title=\"Swiss Franc\">CHF371.10</span> (CHF)</li><li>type: <span title=\"Codes:{http://fhir.ch/ig/ch-epl/CodeSystem/ch-epl-foph-price-type 756002005002}\">Ex-factory price</span></li><li>changeType: <span title=\"Codes:{http://fhir.ch/ig/ch-epl/CodeSystem/ch-epl-foph-type-of-price-change 756002006006}\">Normal price mutation</span></li><li>changeDate: 2023-12-01</li></ul></blockquote><blockquote><p><b>CH - EPL Product Price</b></p><ul><li>value: <span title=\"Swiss Franc\">CHF419.95</span> (CHF)</li><li>type: <span title=\"Codes:{http://fhir.ch/ig/ch-epl/CodeSystem/ch-epl-foph-price-type 756002005001}\">Retail price</span></li><li>changeType: <span title=\"Codes:{http://fhir.ch/ig/ch-epl/CodeSystem/ch-epl-foph-type-of-price-change 756002006005}\">VAT-change</span></li><li>changeDate: 2023-12-01</li></ul></blockquote><p><b>subject</b>: <a href=\"PackagedProductDefinition-PMP-Abrilada-40mg-0.8ml-1-Pre-Filled-Pen.html\">PackagedProductDefinition: identifier = http://fhir.ch/ig/ch-epl/sid/pcid#Clinical Product Identifier#CH-7601001010604-6783101-001; containedItemQuantity = 1 Pre-filled pen; description = ABRILADA Inj Lös 40 mg/0.8ml Fertpen 1 x 0.8 ml</a></p><p><b>type</b>: <span title=\"Codes:{http://fhir.ch/ig/ch-epl/CodeSystem/ch-authorisation-type 756000002003}\">Reimbursement SL</span></p><h3>Indications</h3><table class=\"grid\"><tr><td style=\"display: none\">-</td><td><b>Extension</b></td><td><b>Reference</b></td></tr><tr><td style=\"display: none\">*</td><td>, , , , , , </td><td><a href=\"ClinicalUseDefinition-IND-10020041.html\">ClinicalUseDefinition: type = indication</a></td></tr></table><p><b>holder</b>: <a href=\"#hcFOPH-21203-1-Pre-Filled-Pen/holder-Pfizer-AG\">Organization Pfizer AG</a></p><hr/><blockquote><p class=\"res-header-id\"><b>Generated Narrative: Organization #holder-Pfizer-AG</b></p><a name=\"FOPH-21203-1-Pre-Filled-Pen/holder-Pfizer-AG\"> </a><a name=\"hcFOPH-21203-1-Pre-Filled-Pen/holder-Pfizer-AG\"> </a><div style=\"display: inline-block; background-color: #d9e0e7; padding: 6px; margin: 4px; border: 1px solid #8da1b4; border-radius: 5px; line-height: 60%\"><p style=\"margin-bottom: 0px\"/><p style=\"margin-bottom: 0px\">Profile: <a href=\"StructureDefinition-ch-epl-organization.html\">CH EPL Organization</a></p></div><p><b>identifier</b>: <a href=\"NamingSystem-LOC.html\" title=\"Identifier holding a number for LocID (Location Identifier of the European Medicines Agency - Organisation Management System OMS)\">LOC Identifier</a>/100015286, <a href=\"NamingSystem-GLN.html\" title=\"Identifier holding a number for GLN (Global Location Number)\">GLN Identifier</a>/7601001010604</p><p><b>name</b>: Pfizer AG</p></blockquote></div>"
      },
      "contained" : [{
        "resourceType" : "Organization",
        "id" : "holder-Pfizer-AG",
        "meta" : {
          "profile" : ["http://fhir.ch/ig/ch-epl/StructureDefinition/ch-epl-organization"]
        },
        "identifier" : [{
          "system" : "urn:oid:1.2.276.0.76",
          "value" : "100015286"
        },
        {
          "system" : "urn:oid:2.51.1.3",
          "value" : "7601001010604"
        }],
        "name" : "Pfizer AG"
      }],
      "extension" : [{
        "extension" : [{
          "url" : "FOPHDossierNumber",
          "valueIdentifier" : {
            "system" : "urn:oid:2.16.756.1",
            "value" : "21203"
          }
        },
        {
          "url" : "status",
          "valueCodeableConcept" : {
            "coding" : [{
              "system" : "http://fhir.ch/ig/ch-epl/CodeSystem/ch-epl-foph-reimbursement-status",
              "code" : "756001021001",
              "display" : "Reimbursed"
            }]
          }
        },
        {
          "url" : "statusDate",
          "valueDate" : "2021-06-01"
        },
        {
          "url" : "expiryDate",
          "valueDate" : "2100-12-31"
        },
        {
          "url" : "listingStatus",
          "valueCodeableConcept" : {
            "coding" : [{
              "system" : "http://fhir.ch/ig/ch-epl/CodeSystem/ch-epl-foph-listing-status",
              "code" : "756001002001",
              "display" : "Listed"
            }]
          }
        },
        {
          "url" : "listingPeriod",
          "valuePeriod" : {
            "start" : "2021-06-01",
            "end" : "2100-12-31"
          }
        },
        {
          "url" : "firstListingDate",
          "valueDate" : "2021-06-01"
        },
        {
          "url" : "costShare",
          "valueInteger" : 10
        },
        {
          "url" : "productType",
          "valueCodeableConcept" : {
            "coding" : [{
              "system" : "http://fhir.ch/ig/ch-epl/CodeSystem/ch-epl-foph-product-type",
              "code" : "756001003002",
              "display" : "Originator product"
            }]
          }
        },
        {
          "url" : "gamme",
          "valueCodeableConcept" : {
            "coding" : [{
              "system" : "http://fhir.ch/ig/ch-epl/CodeSystem/ch-epl-foph-gamme",
              "code" : "756002004002",
              "display" : "Parenteral"
            }]
          }
        }],
        "url" : "http://fhir.ch/ig/ch-epl/StructureDefinition/reimbursementSL"
      },
      {
        "extension" : [{
          "url" : "value",
          "valueMoney" : {
            "value" : 371.1,
            "currency" : "CHF"
          }
        },
        {
          "url" : "type",
          "valueCodeableConcept" : {
            "coding" : [{
              "system" : "http://fhir.ch/ig/ch-epl/CodeSystem/ch-epl-foph-price-type",
              "code" : "756002005002",
              "display" : "Ex-factory price"
            }]
          }
        },
        {
          "url" : "changeType",
          "valueCodeableConcept" : {
            "coding" : [{
              "system" : "http://fhir.ch/ig/ch-epl/CodeSystem/ch-epl-foph-type-of-price-change",
              "code" : "756002006006",
              "display" : "Normal price mutation"
            }]
          }
        },
        {
          "url" : "changeDate",
          "valueDate" : "2023-12-01"
        }],
        "url" : "http://fhir.ch/ig/ch-epl/StructureDefinition/productPrice"
      },
      {
        "extension" : [{
          "url" : "value",
          "valueMoney" : {
            "value" : 419.95,
            "currency" : "CHF"
          }
        },
        {
          "url" : "type",
          "valueCodeableConcept" : {
            "coding" : [{
              "system" : "http://fhir.ch/ig/ch-epl/CodeSystem/ch-epl-foph-price-type",
              "code" : "756002005001",
              "display" : "Retail price"
            }]
          }
        },
        {
          "url" : "changeType",
          "valueCodeableConcept" : {
            "coding" : [{
              "system" : "http://fhir.ch/ig/ch-epl/CodeSystem/ch-epl-foph-type-of-price-change",
              "code" : "756002006005",
              "display" : "VAT-change"
            }]
          }
        },
        {
          "url" : "changeDate",
          "valueDate" : "2023-12-01"
        }],
        "url" : "http://fhir.ch/ig/ch-epl/StructureDefinition/productPrice"
      }],
      "subject" : [{
        "reference" : "PackagedProductDefinition/PMP-Abrilada-40mg-0.8ml-1-Pre-Filled-Pen"
      }],
      "type" : {
        "coding" : [{
          "system" : "http://fhir.ch/ig/ch-epl/CodeSystem/ch-authorisation-type",
          "code" : "756000002003",
          "display" : "Reimbursement SL"
        }]
      },
      "indication" : [{
        "extension" : [{
          "extension" : [{
            "url" : "limitationIndication",
            "valueReference" : {
              "reference" : "ClinicalUseDefinition/LIM-69896004"
            }
          },
          {
            "url" : "status",
            "valueCodeableConcept" : {
              "coding" : [{
                "system" : "http://fhir.ch/ig/ch-epl/CodeSystem/ch-epl-foph-limitationstatus",
                "code" : "756002071001",
                "display" : "Limitation Reimbursed"
              }]
            }
          },
          {
            "url" : "statusDate",
            "valueDate" : "2024-05-01"
          },
          {
            "url" : "period",
            "valuePeriod" : {
              "start" : "2024-05-01",
              "end" : "2100-12-31"
            }
          },
          {
            "url" : "reimbursementEndDate",
            "valueDate" : "2100-12-31"
          },
          {
            "url" : "firstLimitationDate",
            "valueDate" : "2022-03-01"
          }],
          "url" : "http://fhir.ch/ig/ch-epl/StructureDefinition/regulatedAuthorization-limitation"
        },
        {
          "extension" : [{
            "url" : "limitationIndication",
            "valueReference" : {
              "reference" : "ClinicalUseDefinition/LIM-156370009"
            }
          },
          {
            "url" : "status",
            "valueCodeableConcept" : {
              "coding" : [{
                "system" : "http://fhir.ch/ig/ch-epl/CodeSystem/ch-epl-foph-limitationstatus",
                "code" : "756002071001",
                "display" : "Limitation Reimbursed"
              }]
            }
          },
          {
            "url" : "statusDate",
            "valueDate" : "2024-05-01"
          },
          {
            "url" : "period",
            "valuePeriod" : {
              "start" : "2024-05-01",
              "end" : "2100-12-31"
            }
          },
          {
            "url" : "reimbursementEndDate",
            "valueDate" : "2100-12-31"
          },
          {
            "url" : "firstLimitationDate",
            "valueDate" : "2022-03-01"
          }],
          "url" : "http://fhir.ch/ig/ch-epl/StructureDefinition/regulatedAuthorization-limitation"
        },
        {
          "extension" : [{
            "url" : "limitationIndication",
            "valueReference" : {
              "reference" : "ClinicalUseDefinition/LIM-9631008"
            }
          },
          {
            "url" : "status",
            "valueCodeableConcept" : {
              "coding" : [{
                "system" : "http://fhir.ch/ig/ch-epl/CodeSystem/ch-epl-foph-limitationstatus",
                "code" : "756002071001",
                "display" : "Limitation Reimbursed"
              }]
            }
          },
          {
            "url" : "statusDate",
            "valueDate" : "2024-05-01"
          },
          {
            "url" : "period",
            "valuePeriod" : {
              "start" : "2024-05-01",
              "end" : "2100-12-31"
            }
          },
          {
            "url" : "reimbursementEndDate",
            "valueDate" : "2100-12-31"
          },
          {
            "url" : "firstLimitationDate",
            "valueDate" : "2022-03-01"
          }],
          "url" : "http://fhir.ch/ig/ch-epl/StructureDefinition/regulatedAuthorization-limitation"
        },
        {
          "extension" : [{
            "url" : "limitationIndication",
            "valueReference" : {
              "reference" : "ClinicalUseDefinition/LIM-34000006"
            }
          },
          {
            "url" : "status",
            "valueCodeableConcept" : {
              "coding" : [{
                "system" : "http://fhir.ch/ig/ch-epl/CodeSystem/ch-epl-foph-limitationstatus",
                "code" : "756002071001",
                "display" : "Limitation Reimbursed"
              }]
            }
          },
          {
            "url" : "statusDate",
            "valueDate" : "2024-05-01"
          },
          {
            "url" : "period",
            "valuePeriod" : {
              "start" : "2024-05-01",
              "end" : "2100-12-31"
            }
          },
          {
            "url" : "reimbursementEndDate",
            "valueDate" : "2100-12-31"
          },
          {
            "url" : "firstLimitationDate",
            "valueDate" : "2022-03-01"
          }],
          "url" : "http://fhir.ch/ig/ch-epl/StructureDefinition/regulatedAuthorization-limitation"
        },
        {
          "extension" : [{
            "url" : "limitationIndication",
            "valueReference" : {
              "reference" : "ClinicalUseDefinition/LIM-64766004"
            }
          },
          {
            "url" : "status",
            "valueCodeableConcept" : {
              "coding" : [{
                "system" : "http://fhir.ch/ig/ch-epl/CodeSystem/ch-epl-foph-limitationstatus",
                "code" : "756002071001",
                "display" : "Limitation Reimbursed"
              }]
            }
          },
          {
            "url" : "statusDate",
            "valueDate" : "2024-05-01"
          },
          {
            "url" : "period",
            "valuePeriod" : {
              "start" : "2024-05-01",
              "end" : "2100-12-31"
            }
          },
          {
            "url" : "reimbursementEndDate",
            "valueDate" : "2100-12-31"
          },
          {
            "url" : "firstLimitationDate",
            "valueDate" : "2022-03-01"
          }],
          "url" : "http://fhir.ch/ig/ch-epl/StructureDefinition/regulatedAuthorization-limitation"
        },
        {
          "extension" : [{
            "url" : "limitationIndication",
            "valueReference" : {
              "reference" : "ClinicalUseDefinition/LIM-9014002"
            }
          },
          {
            "url" : "status",
            "valueCodeableConcept" : {
              "coding" : [{
                "system" : "http://fhir.ch/ig/ch-epl/CodeSystem/ch-epl-foph-limitationstatus",
                "code" : "756002071001",
                "display" : "Limitation Reimbursed"
              }]
            }
          },
          {
            "url" : "statusDate",
            "valueDate" : "2024-05-01"
          },
          {
            "url" : "period",
            "valuePeriod" : {
              "start" : "2024-05-01",
              "end" : "2100-12-31"
            }
          },
          {
            "url" : "reimbursementEndDate",
            "valueDate" : "2100-12-31"
          },
          {
            "url" : "firstLimitationDate",
            "valueDate" : "2022-03-01"
          }],
          "url" : "http://fhir.ch/ig/ch-epl/StructureDefinition/regulatedAuthorization-limitation"
        },
        {
          "extension" : [{
            "url" : "limitationIndication",
            "valueReference" : {
              "reference" : "ClinicalUseDefinition/LIM-59393003"
            }
          },
          {
            "url" : "status",
            "valueCodeableConcept" : {
              "coding" : [{
                "system" : "http://fhir.ch/ig/ch-epl/CodeSystem/ch-epl-foph-limitationstatus",
                "code" : "756002071001",
                "display" : "Limitation Reimbursed"
              }]
            }
          },
          {
            "url" : "statusDate",
            "valueDate" : "2024-05-01"
          },
          {
            "url" : "period",
            "valuePeriod" : {
              "start" : "2024-05-01",
              "end" : "2100-12-31"
            }
          },
          {
            "url" : "reimbursementEndDate",
            "valueDate" : "2100-12-31"
          },
          {
            "url" : "firstLimitationDate",
            "valueDate" : "2022-03-01"
          }],
          "url" : "http://fhir.ch/ig/ch-epl/StructureDefinition/regulatedAuthorization-limitation"
        }],
        "reference" : {
          "reference" : "ClinicalUseDefinition/IND-10020041"
        }
      }],
      "holder" : {
        "reference" : "#holder-Pfizer-AG"
      }
    }
  },
  {
    "fullUrl" : "http://fhir.epl.bag.admin.ch/CHIDMPPackagedProductDefinition/PMP-Abrilada-40mg-0.8ml-2-Pre-Filled-Pen",
    "resource" : {
      "resourceType" : "PackagedProductDefinition",
      "id" : "PMP-Abrilada-40mg-0.8ml-2-Pre-Filled-Pen",
      "meta" : {
        "profile" : ["http://fhir.ch/ig/ch-epl/StructureDefinition/ch-idmp-packagedproductdefinition"]
      },
      "text" : {
        "status" : "generated",
        "div" : "<div xmlns=\"http://www.w3.org/1999/xhtml\"><a name=\"PackagedProductDefinition_PMP-Abrilada-40mg-0.8ml-2-Pre-Filled-Pen\"> </a><p class=\"res-header-id\"><b>Generated Narrative: PackagedProductDefinition PMP-Abrilada-40mg-0.8ml-2-Pre-Filled-Pen</b></p><a name=\"PMP-Abrilada-40mg-0.8ml-2-Pre-Filled-Pen\"> </a><a name=\"hcPMP-Abrilada-40mg-0.8ml-2-Pre-Filled-Pen\"> </a><div style=\"display: inline-block; background-color: #d9e0e7; padding: 6px; margin: 4px; border: 1px solid #8da1b4; border-radius: 5px; line-height: 60%\"><p style=\"margin-bottom: 0px\"/><p style=\"margin-bottom: 0px\">Profile: <a href=\"StructureDefinition-ch-idmp-packagedproductdefinition.html\">IDMP PackagedProductDefinition</a></p></div><p><b>identifier</b>: <a href=\"NamingSystem-PCID.html\" title=\"Temporary Identifier in this implementation guide until officially released by Swissmedic\">Clinical Product Identifier</a>/CH-7601001010604-6783101-002</p><p><b>packageFor</b>: <a href=\"MedicinalProductDefinition-Abrilada-40mg-Pre-Filled-Pen.html\">MedicinalProductDefinition: extension = Solution for injection,Austausch Referenzpräparat/Biosimilar\nDie Behandlung mit ABRILADA bedarf der Kostengutsprache durch den Krankenversicherer nach vorgängiger Konsultation des Vertrauensarztes. Für die Behandlung mit ABRILADA ist keine neue Kostengutsprache nötig, wenn in derselben Indikation bereits eine Kostengutsprache für das Referenzpräparat oder ein anderes Biosimilar besteht.\n\nAktive rheumatoide Arthritis\nBehandlung mit ABRILADA, wenn die vorausgegangene antirheumatische Standardtherapie mit krankheitsmodifizierenden Antirheumatika (DMARDs) unzulänglich war.\n\nAktive polyartikuläre juvenile idiopathische Arthritis bei Kindern und Jugendlichen ab einem Körpergewicht von ≥ 30 kg\nBehandlung mit ABRILADA, wenn die vorausgegangene Standardtherapie mit krankheitsmodifizierenden Antirheumatika (DMARDs) unzulänglich war.\n\nPsoriasis-Arthritis\nBehandlung mit ABRILADA, wenn die vorausgegangene Standardtherapie mit krankheitsmodifizierenden Antirheumatika (DMARDs) unzulänglich war.\n\nAnkylosierende Spondylitis (Morbus Bechterew)\nBehandlung mit ABRILADA, wenn die vorausgegangene konventionelle Therapie unzulänglich war oder nicht vertragen wurde.\n\nAktiver Morbus Crohn\nBehandlung erwachsener Patienten mit ABRILADA, wenn die vorausgegangene konventionelle Therapie (z.B. mit Azathioprin, 6-Mercaptopurin oder Glukokortikoiden) unzulänglich war, sowie bei Patienten, die nicht mehr auf Infliximab ansprechen oder dieses nicht vertragen. Nach zwei Jahren ununterbrochener Therapie bedarf die Behandlung einer erneuten Kostengutsprache durch den Krankenversicherer nach vorgängiger Konsultation des Vertrauensarztes.\n\nModerate bis schwere Colitis ulcerosa\nBehandlung erwachsener Patienten mit ABRILADA, wenn die vorausgegangene konventionelle Therapie (z.B. mit Azathioprin, 6-Mercaptopurin oder Glukokortikoiden) unzulänglich war oder nicht vertragen wurde.\n\nDie Verschreibung von ABRILADA für die folgenden Behandlungen kann nur durch Fachärzte der Dermatologie oder dermatologische Universitätskliniken/ Polikliniken erfolgen:\n\nSchwere Plaque-Psoriasis\nBehandlung erwachsener Patienten mit schwerer Plaque-Psoriasis, bei denen eine Phototherapie oder eine der folgenden konventionellen systemischen Therapien (Ciclosporin, Methotrexat, Acitretin) keinen therapeutischen Erfolg gezeigt haben. Falls nach 16 Wochen kein therapeutischer Erfolg eingetreten ist, ist die Behandlung abzubrechen.\n\nAktive, mittelschwere bis schwere Hidradenitis suppurativa (Acne inversa)\nBehandlung erwachsener Patienten, wenn die vorausgegangene systemische Therapie mit Antibiotika unzulänglich war. Bei Patienten, die nach 12 Wochen kein Ansprechen nach HiSCR von mindestens 50% zeigen, ist die Behandlung abzubrechen. Nach 52 Wochen ununterbrochener Therapie bedarf die Behandlung einer erneuten Kostengutsprache durch den Krankenversicherer nach vorgängiger Konsultation des Vertrauensarztes.; identifier = http://fhir.ch/ig/ch-epl/sid/mpid#Medical Product Identifier#CH-7601001010604-6783101; indication = Rheumatoide Arthritis\nAbrilada ist indiziert zur Reduzierung der Anzeichen und Symptome sowie zur Verlangsamung der Progression struktureller Schäden und zur Verbesserung der körperlichen Funktionsfähigkeit bei erwachsenen Patienten mit einer mässig bis stark ausgeprägten aktiven rheumatoiden Arthritis, die nur unzureichend auf krankheitsmodifizierende Antirheumatika (DMARDs) angesprochen haben.\nAbrilada kann als Monotherapie oder in Kombination mit Methotrexat bzw. anderen krankheitsmodifizierenden Antirheumatika eingesetzt werden, wobei aber die Kombination von Adalimumab mit Ciclosporin, Azathioprin und anderen anti-TNF-α-Therapien nicht untersucht worden ist.\nBei Patienten, bei denen eine mässig bis stark ausgeprägte rheumatoide Arthritis erst kürzlich (&lt;3 Jahre) diagnostiziert wurde und die zuvor nicht mit Methotrexat behandelt worden war, konnte eine Wirksamkeit von Adalimumab in Kombination mit Methotrexat gezeigt werden.\n\nPolyartikuläre juvenile idiopathische Arthritis (ab 30 kg Körpergewicht)\nAbrilada ist in Kombination mit Methotrexat indiziert zur Behandlung der aktiven polyartikulären juvenilen idiopathischen Arthritis bei Kindern und Jugendlichen ab 30 kg Körpergewicht, die nur unzureichend auf ein oder mehrere krankheitsmodifizierende Antirheumatika (DMARDs), einschliesslich Methotrexat, angesprochen haben oder eine solche Therapie nicht tolerieren. Abrilada kann im Falle einer Unverträglichkeit gegenüber Methotrexat oder, wenn die weitere Behandlung mit Methotrexat nicht möglich ist, als Monotherapie angewendet werden. Bei Kindern, die jünger als 4 Jahre sind, wurde Adalimumab nicht untersucht.\n\nPsoriasis-Arthritis\nAbrilada ist indiziert zur Reduzierung der Anzeichen und Symptome der Psoriasis-Arthritis bei Patienten mit ungenügendem Ansprechen auf krankheitsmodifizierende Antirheumatika. Abrilada reduziert die Progressionsrate struktureller Schäden und verbessert die körperliche Funktionsfähigkeit bei Patienten mit der polyartikulären, symmetrischen Form der Erkrankung. Abrilada kann als Monotherapie oder in Kombination mit krankheitsmodifizierenden Antirheumatika angewendet werden.\n\nAnkylosierende Spondylitis (Morbus Bechterew)\nAbrilada ist indiziert zur Behandlung von erwachsenen Patienten mit aktiver ankylosierender Spondylitis, die nur unzureichend auf herkömmliche Therapien angesprochen haben.\n\nMorbus Crohn\nAbrilada ist indiziert zur Behandlung von erwachsenen Patienten mit einem Morbus Crohn mit mässiger bis hoher Krankheitsaktivität, die nur unzureichend auf herkömmliche Therapien angesprochen haben, sowie bei erwachsenen Patienten, die nicht mehr auf Infliximab ansprechen oder dieses nicht vertragen.\n\nColitis ulcerosa\nAbrilada ist indiziert zur Behandlung der mittelschweren bis schweren aktiven Colitis ulcerosa bei erwachsenen Patienten, die auf die herkömmliche Therapie, einschliesslich Glukokortikoide und/oder 6-Mercaptopurin (6-MP) oder Azathioprin (AZA), unzureichend angesprochen haben oder die eine Unverträglichkeit gegen eine solche Therapie haben oder bei denen eine solche Therapie kontraindiziert ist.\n\nPsoriasis\nAbrilada ist als Monotherapie indiziert zur Behandlung von erwachsenen Patienten mit mittelschwerer bis schwerer, chronischer Plaque-Psoriasis, bei denen eine systemische Therapie oder eine PUVA-Therapie angezeigt ist.\n\nPsoriasis bei Kindern und Jugendlichen (ab 30 kg Körpergewicht)\nAbrilada ist indiziert zur Behandlung der schweren chronischen Plaque-Psoriasis bei Kindern und Jugendlichen mit einem Körpergewicht ≥30 kg, die nur unzureichend auf Phototherapien oder systemische Vortherapien angesprochen haben oder für die diese Therapien nicht geeignet sind.\n\nHidradenitis suppurativa (Acne inversa)\nAbrilada ist indiziert zur Behandlung von erwachsenen Patienten mit aktiver mittelschwerer bis schwerer Hidradenitis suppurativa (Acne inversa), die unzureichend auf eine systemische Antibiotikatherapie angesprochen haben.\n\nUveitis\nAbrilada ist indiziert zur Induktion (in Kombination mit Kortikosteroiden) und Erhaltung einer Remission bei erwachsenen Patienten mit Kortikosteroid-abhängiger nicht-infektiöser intermediärer Uveitis, posteriorer Uveitis oder Panuveitis, die nur unzureichend auf Kortikosteroide mit oder ohne Immunmodulatoren angesprochen haben oder die eine Kortikoid sparende Behandlung benötigen. Die Kombination mit Kortikosteroiden und/oder Immunmodulatoren richtet sich nach dem anatomischen und funktionellen Verlauf.; legalStatusOfSupply = Medicinal product subject to medical or veterinary prescription (B); additionalMonitoringIndicator = No Warning; pediatricUseIndicator = Authorised for the treatment in children; classification = adalimumab,Extension for biosimilar,Biologics,Originator product,07. STOFFWECHSEL</a></p><p><b>containedItemQuantity</b>: 2 Pre-filled pen<span style=\"background: LightGoldenRodYellow\"> (Details: EDQM - Standard Terms  code30050000 = 'Pre-filled pen')</span></p><p><b>description</b>: </p><div><p>ABRILADA Inj Lös 40 mg/0.8ml Fertpen 2 x 0.8 ml</p>\n</div><h3>LegalStatusOfSupplies</h3><table class=\"grid\"><tr><td style=\"display: none\">-</td><td><b>Code</b></td></tr><tr><td style=\"display: none\">*</td><td><span title=\"Codes:{http://fhir.ch/ig/ch-epl/CodeSystem/ch-SMC-legal-status-of-supply 756005022003}\">Medicinal product subject to medical or veterinary prescription (B)</span></td></tr></table><blockquote><p><b>packaging</b></p><p><b>identifier</b>: <a href=\"NamingSystem-GTIN.html\" title=\"GS1 defines trade items as products or services that are priced, ordered or invoiced at any point in the supply chain.\">Global Trade Item Number</a>/7680678310026</p><p><b>type</b>: <span title=\"Codes:{http://standardterms.edqm.eu 30009000}\">Box</span></p><p><b>quantity</b>: 1</p><h3>ShelfLifeStorages</h3><table class=\"grid\"><tr><td style=\"display: none\">-</td><td><b>Type</b></td><td><b>Period[x]</b></td><td><b>SpecialPrecautionsForStorage</b></td></tr><tr><td style=\"display: none\">*</td><td><span title=\"Codes:{http://spor.ema.europa.eu/v1/lists/100000073343 100000073406}\">Shelf life from manufacturing time</span></td><td>Das Arzneimittel darf nur bis zu dem auf dem Behälter mit «EXP» bezeichneten Datum verwendet werden.</td><td><span title=\"Codes:{http://fhir.ch/ig/ch-epl/CodeSystem/ch-SMC-special-precautions-for-storage 756005042009}\">Do not store above 30°C</span></td></tr><tr><td style=\"display: none\">*</td><td> </td><td> </td><td><span title=\"Codes:{http://fhir.ch/ig/ch-epl/CodeSystem/ch-SMC-special-precautions-for-storage 756005042004}\">protect from light</span></td></tr><tr><td style=\"display: none\">*</td><td> </td><td> </td><td><span title=\"Codes:{http://fhir.ch/ig/ch-epl/CodeSystem/ch-SMC-special-precautions-for-storage 756005042011}\">Store in the original container</span></td></tr><tr><td style=\"display: none\">*</td><td> </td><td> </td><td><span title=\"Codes:{http://fhir.ch/ig/ch-epl/CodeSystem/ch-SMC-special-precautions-for-storage 756005042011}\">Store in the original container</span></td></tr><tr><td style=\"display: none\">*</td><td><span title=\"Codes:{http://spor.ema.europa.eu/v1/lists/100000073343 100000073403}\">Shelf life of the medicinal product as packaged for sale</span></td><td>No display for Duration  (value: 30; unit: day; system: http://unitsofmeasure.org; code: d)</td><td> </td></tr></table></blockquote></div>"
      },
      "identifier" : [{
        "system" : "http://fhir.ch/ig/ch-epl/sid/pcid",
        "value" : "CH-7601001010604-6783101-002"
      }],
      "packageFor" : [{
        "reference" : "MedicinalProductDefinition/Abrilada-40mg-Pre-Filled-Pen"
      }],
      "containedItemQuantity" : [{
        "value" : 2,
        "unit" : "Pre-filled pen",
        "system" : "http://standardterms.edqm.eu",
        "code" : "30050000"
      }],
      "description" : "ABRILADA Inj Lös 40 mg/0.8ml Fertpen 2 x 0.8 ml",
      "legalStatusOfSupply" : [{
        "code" : {
          "coding" : [{
            "system" : "http://fhir.ch/ig/ch-epl/CodeSystem/ch-SMC-legal-status-of-supply",
            "code" : "756005022003",
            "display" : "Medicinal product subject to medical or veterinary prescription (B)"
          }]
        }
      }],
      "packaging" : {
        "identifier" : [{
          "system" : "urn:oid:2.51.1.1",
          "value" : "7680678310026"
        }],
        "type" : {
          "coding" : [{
            "system" : "http://standardterms.edqm.eu",
            "code" : "30009000",
            "display" : "Box"
          }]
        },
        "quantity" : 1,
        "shelfLifeStorage" : [{
          "type" : {
            "coding" : [{
              "system" : "http://spor.ema.europa.eu/v1/lists/100000073343",
              "code" : "100000073406",
              "display" : "Shelf life from manufacturing time"
            }]
          },
          "periodString" : "Das Arzneimittel darf nur bis zu dem auf dem Behälter mit «EXP» bezeichneten Datum verwendet werden.",
          "specialPrecautionsForStorage" : [{
            "coding" : [{
              "system" : "http://fhir.ch/ig/ch-epl/CodeSystem/ch-SMC-special-precautions-for-storage",
              "code" : "756005042009",
              "display" : "Do not store above 30°C"
            }]
          }]
        },
        {
          "specialPrecautionsForStorage" : [{
            "coding" : [{
              "system" : "http://fhir.ch/ig/ch-epl/CodeSystem/ch-SMC-special-precautions-for-storage",
              "code" : "756005042004",
              "display" : "protect from light"
            }]
          }]
        },
        {
          "specialPrecautionsForStorage" : [{
            "coding" : [{
              "system" : "http://fhir.ch/ig/ch-epl/CodeSystem/ch-SMC-special-precautions-for-storage",
              "code" : "756005042011",
              "display" : "Store in the original container"
            }]
          }]
        },
        {
          "specialPrecautionsForStorage" : [{
            "coding" : [{
              "system" : "http://fhir.ch/ig/ch-epl/CodeSystem/ch-SMC-special-precautions-for-storage",
              "code" : "756005042011",
              "display" : "Store in the original container"
            }]
          }]
        },
        {
          "type" : {
            "coding" : [{
              "system" : "http://spor.ema.europa.eu/v1/lists/100000073343",
              "code" : "100000073403",
              "display" : "Shelf life of the medicinal product as packaged for sale"
            }]
          },
          "periodDuration" : {
            "value" : 30,
            "unit" : "day",
            "system" : "http://unitsofmeasure.org",
            "code" : "d"
          }
        }]
      }
    }
  },
  {
    "fullUrl" : "http://fhir.epl.bag.admin.ch/CHIDMPRegulatedAuthorisation/MA-67831002",
    "resource" : {
      "resourceType" : "RegulatedAuthorization",
      "id" : "MA-67831002",
      "meta" : {
        "profile" : ["http://fhir.ch/ig/ch-epl/StructureDefinition/ch-idmp-regulatedauthorization"]
      },
      "text" : {
        "status" : "generated",
        "div" : "<div xmlns=\"http://www.w3.org/1999/xhtml\"><a name=\"RegulatedAuthorization_MA-67831002\"> </a><p class=\"res-header-id\"><b>Generated Narrative: RegulatedAuthorization MA-67831002</b></p><a name=\"MA-67831002\"> </a><a name=\"hcMA-67831002\"> </a><div style=\"display: inline-block; background-color: #d9e0e7; padding: 6px; margin: 4px; border: 1px solid #8da1b4; border-radius: 5px; line-height: 60%\"><p style=\"margin-bottom: 0px\"/><p style=\"margin-bottom: 0px\">Profile: <a href=\"StructureDefinition-ch-idmp-regulatedauthorization.html\">IDMP RegulatedAuthorization</a></p></div><p><b>identifier</b>: <a href=\"NamingSystem-AuthNo.html\" title=\"Temporary Identifier in this implementation guide until officially released by Swissmedic\">Marketing Authorisation Number</a>/66231002</p><p><b>subject</b>: <a href=\"PackagedProductDefinition-PMP-Abrilada-40mg-0.8ml-2-Pre-Filled-Pen.html\">PackagedProductDefinition: identifier = http://fhir.ch/ig/ch-epl/sid/pcid#Clinical Product Identifier#CH-7601001010604-6783101-002; containedItemQuantity = 2 Pre-filled pen; description = ABRILADA Inj Lös 40 mg/0.8ml Fertpen 2 x 0.8 ml</a></p><p><b>type</b>: <span title=\"Codes:{http://fhir.ch/ig/ch-epl/CodeSystem/ch-authorisation-type 756000002001}\">Marketing Authorisation</span></p><p><b>region</b>: <span title=\"Codes:{urn:iso:std:iso:3166 CH}\">Switzerland</span></p><p><b>status</b>: <span title=\"Codes:{http://fhir.ch/ig/ch-epl/CodeSystem/ch-SMC-authorisation-status 756005023007}\">valid</span></p><p><b>statusDate</b>: 2020-02-12</p><p><b>holder</b>: <a href=\"#hcMA-67831002/holder-Pfizer-AG\">Organization Pfizer AG</a></p><p><b>regulator</b>: <a href=\"#hcMA-67831002/regulator-SMC\">Organization SMC</a></p><hr/><blockquote><p class=\"res-header-id\"><b>Generated Narrative: Organization #holder-Pfizer-AG</b></p><a name=\"MA-67831002/holder-Pfizer-AG\"> </a><a name=\"hcMA-67831002/holder-Pfizer-AG\"> </a><div style=\"display: inline-block; background-color: #d9e0e7; padding: 6px; margin: 4px; border: 1px solid #8da1b4; border-radius: 5px; line-height: 60%\"><p style=\"margin-bottom: 0px\"/><p style=\"margin-bottom: 0px\">Profile: <a href=\"StructureDefinition-ch-epl-organization.html\">CH EPL Organization</a></p></div><p><b>identifier</b>: <a href=\"NamingSystem-LOC.html\" title=\"Identifier holding a number for LocID (Location Identifier of the European Medicines Agency - Organisation Management System OMS)\">LOC Identifier</a>/100015286, <a href=\"NamingSystem-GLN.html\" title=\"Identifier holding a number for GLN (Global Location Number)\">GLN Identifier</a>/7601001010604</p><p><b>name</b>: Pfizer AG</p></blockquote><hr/><blockquote><p class=\"res-header-id\"><b>Generated Narrative: Organization #regulator-SMC</b></p><a name=\"MA-67831002/regulator-SMC\"> </a><a name=\"hcMA-67831002/regulator-SMC\"> </a><div style=\"display: inline-block; background-color: #d9e0e7; padding: 6px; margin: 4px; border: 1px solid #8da1b4; border-radius: 5px; line-height: 60%\"><p style=\"margin-bottom: 0px\"/><p style=\"margin-bottom: 0px\">Profile: <a href=\"StructureDefinition-ch-epl-organization.html\">CH EPL Organization</a></p></div><p><b>identifier</b>: <a href=\"NamingSystem-LOC.html\" title=\"Identifier holding a number for LocID (Location Identifier of the European Medicines Agency - Organisation Management System OMS)\">LOC Identifier</a>/100010911, <a href=\"NamingSystem-GLN.html\" title=\"Identifier holding a number for GLN (Global Location Number)\">GLN Identifier</a>/7601001398511</p><p><b>name</b>: SMC</p></blockquote></div>"
      },
      "contained" : [{
        "resourceType" : "Organization",
        "id" : "holder-Pfizer-AG",
        "meta" : {
          "profile" : ["http://fhir.ch/ig/ch-epl/StructureDefinition/ch-epl-organization"]
        },
        "identifier" : [{
          "system" : "urn:oid:1.2.276.0.76",
          "value" : "100015286"
        },
        {
          "system" : "urn:oid:2.51.1.3",
          "value" : "7601001010604"
        }],
        "name" : "Pfizer AG"
      },
      {
        "resourceType" : "Organization",
        "id" : "regulator-SMC",
        "meta" : {
          "profile" : ["http://fhir.ch/ig/ch-epl/StructureDefinition/ch-epl-organization"]
        },
        "identifier" : [{
          "system" : "urn:oid:1.2.276.0.76",
          "value" : "100010911"
        },
        {
          "system" : "urn:oid:2.51.1.3",
          "value" : "7601001398511"
        }],
        "name" : "SMC"
      }],
      "identifier" : [{
        "system" : "http://fhir.ch/ig/ch-epl/sid/authno",
        "value" : "66231002"
      }],
      "subject" : [{
        "reference" : "PackagedProductDefinition/PMP-Abrilada-40mg-0.8ml-2-Pre-Filled-Pen"
      }],
      "type" : {
        "coding" : [{
          "system" : "http://fhir.ch/ig/ch-epl/CodeSystem/ch-authorisation-type",
          "code" : "756000002001",
          "display" : "Marketing Authorisation"
        }]
      },
      "region" : [{
        "coding" : [{
          "system" : "urn:iso:std:iso:3166",
          "code" : "CH",
          "display" : "Switzerland"
        }]
      }],
      "status" : {
        "coding" : [{
          "system" : "http://fhir.ch/ig/ch-epl/CodeSystem/ch-SMC-authorisation-status",
          "code" : "756005023007",
          "display" : "valid"
        }]
      },
      "statusDate" : "2020-02-12",
      "holder" : {
        "reference" : "#holder-Pfizer-AG"
      },
      "regulator" : {
        "reference" : "#regulator-SMC"
      }
    }
  },
  {
    "fullUrl" : "http://fhir.epl.bag.admin.ch/CHIDMPRegulatedAuthorisation/FOPH-21203-2-Pre-Filled-Pen",
    "resource" : {
      "resourceType" : "RegulatedAuthorization",
      "id" : "FOPH-21203-2-Pre-Filled-Pen",
      "text" : {
        "status" : "extensions",
        "div" : "<div xmlns=\"http://www.w3.org/1999/xhtml\"><a name=\"RegulatedAuthorization_FOPH-21203-2-Pre-Filled-Pen\"> </a><p class=\"res-header-id\"><b>Generated Narrative: RegulatedAuthorization FOPH-21203-2-Pre-Filled-Pen</b></p><a name=\"FOPH-21203-2-Pre-Filled-Pen\"> </a><a name=\"hcFOPH-21203-2-Pre-Filled-Pen\"> </a><blockquote><p><b>CH - EPL Reimbursement SL</b></p><ul><li>FOPHDossierNumber: <a href=\"NamingSystem-Dossier.html\" title=\"Identifier holding the Dossier number of FOPH\">FOPH Dossier Number</a>/21203</li><li>status: <span title=\"Codes:{http://fhir.ch/ig/ch-epl/CodeSystem/ch-epl-foph-reimbursement-status 756001021001}\">Reimbursed</span></li><li>statusDate: 2021-06-01</li><li>listingStatus: <span title=\"Codes:{http://fhir.ch/ig/ch-epl/CodeSystem/ch-epl-foph-listing-status 756001002001}\">Listed</span></li><li>listingPeriod: 2021-06-01 --&gt; (ongoing)</li><li>firstListingDate: 2021-06-01</li><li>costShare: 10</li></ul></blockquote><blockquote><p><b>CH - EPL Product Price</b></p><ul><li>value: <span title=\"Swiss Franc\">CHF742.20</span> (CHF)</li><li>type: <span title=\"Codes:{http://fhir.ch/ig/ch-epl/CodeSystem/ch-epl-foph-price-type 756002005002}\">Ex-factory price</span></li><li>changeType: <span title=\"Codes:{http://fhir.ch/ig/ch-epl/CodeSystem/ch-epl-foph-type-of-price-change 756002006006}\">Normal price mutation</span></li><li>changeDate: 2023-12-01</li></ul></blockquote><blockquote><p><b>CH - EPL Product Price</b></p><ul><li>value: <span title=\"Swiss Franc\">CHF823.50</span> (CHF)</li><li>type: <span title=\"Codes:{http://fhir.ch/ig/ch-epl/CodeSystem/ch-epl-foph-price-type 756002005001}\">Retail price</span></li><li>changeType: <span title=\"Codes:{http://fhir.ch/ig/ch-epl/CodeSystem/ch-epl-foph-type-of-price-change 756002006005}\">VAT-change</span></li><li>changeDate: 2023-12-01</li></ul></blockquote><p><b>subject</b>: <a href=\"PackagedProductDefinition-PMP-Abrilada-40mg-0.8ml-2-Pre-Filled-Pen.html\">PackagedProductDefinition: identifier = http://fhir.ch/ig/ch-epl/sid/pcid#Clinical Product Identifier#CH-7601001010604-6783101-002; containedItemQuantity = 2 Pre-filled pen; description = ABRILADA Inj Lös 40 mg/0.8ml Fertpen 2 x 0.8 ml</a></p><p><b>type</b>: <span title=\"Codes:{http://fhir.ch/ig/ch-epl/CodeSystem/ch-authorisation-type 756000002003}\">Reimbursement SL</span></p><h3>Indications</h3><table class=\"grid\"><tr><td style=\"display: none\">-</td><td><b>Extension</b></td><td><b>Reference</b></td></tr><tr><td style=\"display: none\">*</td><td>, , , , , , </td><td><a href=\"ClinicalUseDefinition-IND-10020041.html\">ClinicalUseDefinition: type = indication</a></td></tr></table><p><b>holder</b>: <a href=\"#hcFOPH-21203-2-Pre-Filled-Pen/holder-Pfizer-AG\">Organization Pfizer AG</a></p><hr/><blockquote><p class=\"res-header-id\"><b>Generated Narrative: Organization #holder-Pfizer-AG</b></p><a name=\"FOPH-21203-2-Pre-Filled-Pen/holder-Pfizer-AG\"> </a><a name=\"hcFOPH-21203-2-Pre-Filled-Pen/holder-Pfizer-AG\"> </a><div style=\"display: inline-block; background-color: #d9e0e7; padding: 6px; margin: 4px; border: 1px solid #8da1b4; border-radius: 5px; line-height: 60%\"><p style=\"margin-bottom: 0px\"/><p style=\"margin-bottom: 0px\">Profile: <a href=\"StructureDefinition-ch-epl-organization.html\">CH EPL Organization</a></p></div><p><b>identifier</b>: <a href=\"NamingSystem-LOC.html\" title=\"Identifier holding a number for LocID (Location Identifier of the European Medicines Agency - Organisation Management System OMS)\">LOC Identifier</a>/100015286, <a href=\"NamingSystem-GLN.html\" title=\"Identifier holding a number for GLN (Global Location Number)\">GLN Identifier</a>/7601001010604</p><p><b>name</b>: Pfizer AG</p></blockquote></div>"
      },
      "contained" : [{
        "resourceType" : "Organization",
        "id" : "holder-Pfizer-AG",
        "meta" : {
          "profile" : ["http://fhir.ch/ig/ch-epl/StructureDefinition/ch-epl-organization"]
        },
        "identifier" : [{
          "system" : "urn:oid:1.2.276.0.76",
          "value" : "100015286"
        },
        {
          "system" : "urn:oid:2.51.1.3",
          "value" : "7601001010604"
        }],
        "name" : "Pfizer AG"
      }],
      "extension" : [{
        "extension" : [{
          "url" : "FOPHDossierNumber",
          "valueIdentifier" : {
            "system" : "urn:oid:2.16.756.1",
            "value" : "21203"
          }
        },
        {
          "url" : "status",
          "valueCodeableConcept" : {
            "coding" : [{
              "system" : "http://fhir.ch/ig/ch-epl/CodeSystem/ch-epl-foph-reimbursement-status",
              "code" : "756001021001",
              "display" : "Reimbursed"
            }]
          }
        },
        {
          "url" : "statusDate",
          "valueDate" : "2021-06-01"
        },
        {
          "url" : "listingStatus",
          "valueCodeableConcept" : {
            "coding" : [{
              "system" : "http://fhir.ch/ig/ch-epl/CodeSystem/ch-epl-foph-listing-status",
              "code" : "756001002001",
              "display" : "Listed"
            }]
          }
        },
        {
          "url" : "listingPeriod",
          "valuePeriod" : {
            "start" : "2021-06-01"
          }
        },
        {
          "url" : "firstListingDate",
          "valueDate" : "2021-06-01"
        },
        {
          "url" : "costShare",
          "valueInteger" : 10
        }],
        "url" : "http://fhir.ch/ig/ch-epl/StructureDefinition/reimbursementSL"
      },
      {
        "extension" : [{
          "url" : "value",
          "valueMoney" : {
            "value" : 742.2,
            "currency" : "CHF"
          }
        },
        {
          "url" : "type",
          "valueCodeableConcept" : {
            "coding" : [{
              "system" : "http://fhir.ch/ig/ch-epl/CodeSystem/ch-epl-foph-price-type",
              "code" : "756002005002",
              "display" : "Ex-factory price"
            }]
          }
        },
        {
          "url" : "changeType",
          "valueCodeableConcept" : {
            "coding" : [{
              "system" : "http://fhir.ch/ig/ch-epl/CodeSystem/ch-epl-foph-type-of-price-change",
              "code" : "756002006006",
              "display" : "Normal price mutation"
            }]
          }
        },
        {
          "url" : "changeDate",
          "valueDate" : "2023-12-01"
        }],
        "url" : "http://fhir.ch/ig/ch-epl/StructureDefinition/productPrice"
      },
      {
        "extension" : [{
          "url" : "value",
          "valueMoney" : {
            "value" : 823.5,
            "currency" : "CHF"
          }
        },
        {
          "url" : "type",
          "valueCodeableConcept" : {
            "coding" : [{
              "system" : "http://fhir.ch/ig/ch-epl/CodeSystem/ch-epl-foph-price-type",
              "code" : "756002005001",
              "display" : "Retail price"
            }]
          }
        },
        {
          "url" : "changeType",
          "valueCodeableConcept" : {
            "coding" : [{
              "system" : "http://fhir.ch/ig/ch-epl/CodeSystem/ch-epl-foph-type-of-price-change",
              "code" : "756002006005",
              "display" : "VAT-change"
            }]
          }
        },
        {
          "url" : "changeDate",
          "valueDate" : "2023-12-01"
        }],
        "url" : "http://fhir.ch/ig/ch-epl/StructureDefinition/productPrice"
      }],
      "subject" : [{
        "reference" : "PackagedProductDefinition/PMP-Abrilada-40mg-0.8ml-2-Pre-Filled-Pen"
      }],
      "type" : {
        "coding" : [{
          "system" : "http://fhir.ch/ig/ch-epl/CodeSystem/ch-authorisation-type",
          "code" : "756000002003",
          "display" : "Reimbursement SL"
        }]
      },
      "indication" : [{
        "extension" : [{
          "extension" : [{
            "url" : "limitationIndication",
            "valueReference" : {
              "reference" : "ClinicalUseDefinition/LIM-69896004"
            }
          },
          {
            "url" : "status",
            "valueCodeableConcept" : {
              "coding" : [{
                "system" : "http://fhir.ch/ig/ch-epl/CodeSystem/ch-epl-foph-limitationstatus",
                "code" : "756002071001",
                "display" : "Limitation Reimbursed"
              }]
            }
          },
          {
            "url" : "statusDate",
            "valueDate" : "2024-05-01"
          },
          {
            "url" : "period",
            "valuePeriod" : {
              "start" : "2024-05-01",
              "end" : "2100-12-31"
            }
          },
          {
            "url" : "reimbursementEndDate",
            "valueDate" : "2100-12-31"
          },
          {
            "url" : "firstLimitationDate",
            "valueDate" : "2022-03-01"
          }],
          "url" : "http://fhir.ch/ig/ch-epl/StructureDefinition/regulatedAuthorization-limitation"
        },
        {
          "extension" : [{
            "url" : "limitationIndication",
            "valueReference" : {
              "reference" : "ClinicalUseDefinition/LIM-156370009"
            }
          },
          {
            "url" : "status",
            "valueCodeableConcept" : {
              "coding" : [{
                "system" : "http://fhir.ch/ig/ch-epl/CodeSystem/ch-epl-foph-limitationstatus",
                "code" : "756002071001",
                "display" : "Limitation Reimbursed"
              }]
            }
          },
          {
            "url" : "statusDate",
            "valueDate" : "2024-05-01"
          },
          {
            "url" : "period",
            "valuePeriod" : {
              "start" : "2024-05-01",
              "end" : "2100-12-31"
            }
          },
          {
            "url" : "reimbursementEndDate",
            "valueDate" : "2100-12-31"
          },
          {
            "url" : "firstLimitationDate",
            "valueDate" : "2022-03-01"
          }],
          "url" : "http://fhir.ch/ig/ch-epl/StructureDefinition/regulatedAuthorization-limitation"
        },
        {
          "extension" : [{
            "url" : "limitationIndication",
            "valueReference" : {
              "reference" : "ClinicalUseDefinition/LIM-9631008"
            }
          },
          {
            "url" : "status",
            "valueCodeableConcept" : {
              "coding" : [{
                "system" : "http://fhir.ch/ig/ch-epl/CodeSystem/ch-epl-foph-limitationstatus",
                "code" : "756002071001",
                "display" : "Limitation Reimbursed"
              }]
            }
          },
          {
            "url" : "statusDate",
            "valueDate" : "2024-05-01"
          },
          {
            "url" : "period",
            "valuePeriod" : {
              "start" : "2024-05-01",
              "end" : "2100-12-31"
            }
          },
          {
            "url" : "reimbursementEndDate",
            "valueDate" : "2100-12-31"
          },
          {
            "url" : "firstLimitationDate",
            "valueDate" : "2022-03-01"
          }],
          "url" : "http://fhir.ch/ig/ch-epl/StructureDefinition/regulatedAuthorization-limitation"
        },
        {
          "extension" : [{
            "url" : "limitationIndication",
            "valueReference" : {
              "reference" : "ClinicalUseDefinition/LIM-34000006"
            }
          },
          {
            "url" : "status",
            "valueCodeableConcept" : {
              "coding" : [{
                "system" : "http://fhir.ch/ig/ch-epl/CodeSystem/ch-epl-foph-limitationstatus",
                "code" : "756002071001",
                "display" : "Limitation Reimbursed"
              }]
            }
          },
          {
            "url" : "statusDate",
            "valueDate" : "2024-05-01"
          },
          {
            "url" : "period",
            "valuePeriod" : {
              "start" : "2024-05-01",
              "end" : "2100-12-31"
            }
          },
          {
            "url" : "reimbursementEndDate",
            "valueDate" : "2100-12-31"
          },
          {
            "url" : "firstLimitationDate",
            "valueDate" : "2022-03-01"
          }],
          "url" : "http://fhir.ch/ig/ch-epl/StructureDefinition/regulatedAuthorization-limitation"
        },
        {
          "extension" : [{
            "url" : "limitationIndication",
            "valueReference" : {
              "reference" : "ClinicalUseDefinition/LIM-64766004"
            }
          },
          {
            "url" : "status",
            "valueCodeableConcept" : {
              "coding" : [{
                "system" : "http://fhir.ch/ig/ch-epl/CodeSystem/ch-epl-foph-limitationstatus",
                "code" : "756002071001",
                "display" : "Limitation Reimbursed"
              }]
            }
          },
          {
            "url" : "statusDate",
            "valueDate" : "2024-05-01"
          },
          {
            "url" : "period",
            "valuePeriod" : {
              "start" : "2024-05-01",
              "end" : "2100-12-31"
            }
          },
          {
            "url" : "reimbursementEndDate",
            "valueDate" : "2100-12-31"
          },
          {
            "url" : "firstLimitationDate",
            "valueDate" : "2022-03-01"
          }],
          "url" : "http://fhir.ch/ig/ch-epl/StructureDefinition/regulatedAuthorization-limitation"
        },
        {
          "extension" : [{
            "url" : "limitationIndication",
            "valueReference" : {
              "reference" : "ClinicalUseDefinition/LIM-9014002"
            }
          },
          {
            "url" : "status",
            "valueCodeableConcept" : {
              "coding" : [{
                "system" : "http://fhir.ch/ig/ch-epl/CodeSystem/ch-epl-foph-limitationstatus",
                "code" : "756002071001",
                "display" : "Limitation Reimbursed"
              }]
            }
          },
          {
            "url" : "statusDate",
            "valueDate" : "2024-05-01"
          },
          {
            "url" : "period",
            "valuePeriod" : {
              "start" : "2024-05-01",
              "end" : "2100-12-31"
            }
          },
          {
            "url" : "reimbursementEndDate",
            "valueDate" : "2100-12-31"
          },
          {
            "url" : "firstLimitationDate",
            "valueDate" : "2022-03-01"
          }],
          "url" : "http://fhir.ch/ig/ch-epl/StructureDefinition/regulatedAuthorization-limitation"
        },
        {
          "extension" : [{
            "url" : "limitationIndication",
            "valueReference" : {
              "reference" : "ClinicalUseDefinition/LIM-59393003"
            }
          },
          {
            "url" : "status",
            "valueCodeableConcept" : {
              "coding" : [{
                "system" : "http://fhir.ch/ig/ch-epl/CodeSystem/ch-epl-foph-limitationstatus",
                "code" : "756002071001",
                "display" : "Limitation Reimbursed"
              }]
            }
          },
          {
            "url" : "statusDate",
            "valueDate" : "2024-05-01"
          },
          {
            "url" : "period",
            "valuePeriod" : {
              "start" : "2024-05-01",
              "end" : "2100-12-31"
            }
          },
          {
            "url" : "reimbursementEndDate",
            "valueDate" : "2100-12-31"
          },
          {
            "url" : "firstLimitationDate",
            "valueDate" : "2022-03-01"
          }],
          "url" : "http://fhir.ch/ig/ch-epl/StructureDefinition/regulatedAuthorization-limitation"
        }],
        "reference" : {
          "reference" : "ClinicalUseDefinition/IND-10020041"
        }
      }],
      "holder" : {
        "reference" : "#holder-Pfizer-AG"
      }
    }
  },
  {
    "fullUrl" : "http://fhir.epl.bag.admin.ch/CHIDMPManufacturedItemDefinition/MI-Abrilada-40mg-Pre-Filled-Pen",
    "resource" : {
      "resourceType" : "ManufacturedItemDefinition",
      "id" : "MI-Abrilada-40mg-Pre-Filled-Pen",
      "meta" : {
        "profile" : ["http://fhir.ch/ig/ch-epl/StructureDefinition/ch-idmp-manufactureditemdefinition"]
      },
      "text" : {
        "status" : "generated",
        "div" : "<div xmlns=\"http://www.w3.org/1999/xhtml\"><a name=\"ManufacturedItemDefinition_MI-Abrilada-40mg-Pre-Filled-Pen\"> </a><p class=\"res-header-id\"><b>Generated Narrative: ManufacturedItemDefinition MI-Abrilada-40mg-Pre-Filled-Pen</b></p><a name=\"MI-Abrilada-40mg-Pre-Filled-Pen\"> </a><a name=\"hcMI-Abrilada-40mg-Pre-Filled-Pen\"> </a><div style=\"display: inline-block; background-color: #d9e0e7; padding: 6px; margin: 4px; border: 1px solid #8da1b4; border-radius: 5px; line-height: 60%\"><p style=\"margin-bottom: 0px\"/><p style=\"margin-bottom: 0px\">Profile: <a href=\"StructureDefinition-ch-idmp-manufactureditemdefinition.html\">CH IDMP ManufacturedItemDefinition</a></p></div><p><b>status</b>: Active</p><p><b>manufacturedDoseForm</b>: <span title=\"Codes:{http://standardterms.edqm.eu 11201000}\">Solution for Injection</span></p><p><b>unitOfPresentation</b>: <span title=\"Codes:{http://standardterms.edqm.eu 15037000}\">Pen</span></p></div>"
      },
      "status" : "active",
      "manufacturedDoseForm" : {
        "coding" : [{
          "system" : "http://standardterms.edqm.eu",
          "code" : "11201000",
          "display" : "Solution for Injection"
        }]
      },
      "unitOfPresentation" : {
        "coding" : [{
          "system" : "http://standardterms.edqm.eu",
          "code" : "15037000",
          "display" : "Pen"
        }]
      }
    }
  },
  {
    "fullUrl" : "http://fhir.epl.bag.admin.ch/CHIDMPAdministrableProductDefinition/PhP-Abrilada-40mg-Pre-Filled-Pen",
    "resource" : {
      "resourceType" : "AdministrableProductDefinition",
      "id" : "PhP-Abrilada-40mg-Pre-Filled-Pen",
      "meta" : {
        "profile" : ["http://fhir.ch/ig/ch-epl/StructureDefinition/ch-idmp-administrableproductdefinition"]
      },
      "text" : {
        "status" : "generated",
        "div" : "<div xmlns=\"http://www.w3.org/1999/xhtml\"><a name=\"AdministrableProductDefinition_PhP-Abrilada-40mg-Pre-Filled-Pen\"> </a><p class=\"res-header-id\"><b>Generated Narrative: AdministrableProductDefinition PhP-Abrilada-40mg-Pre-Filled-Pen</b></p><a name=\"PhP-Abrilada-40mg-Pre-Filled-Pen\"> </a><a name=\"hcPhP-Abrilada-40mg-Pre-Filled-Pen\"> </a><div style=\"display: inline-block; background-color: #d9e0e7; padding: 6px; margin: 4px; border: 1px solid #8da1b4; border-radius: 5px; line-height: 60%\"><p style=\"margin-bottom: 0px\"/><p style=\"margin-bottom: 0px\">Profile: <a href=\"StructureDefinition-ch-idmp-administrableproductdefinition.html\">CH IDMP AdministrableProductDefinition</a></p></div><p><b>status</b>: Active</p><p><b>formOf</b>: <a href=\"MedicinalProductDefinition-Abrilada-40mg-Pre-Filled-Pen.html\">MedicinalProductDefinition: extension = Solution for injection,Austausch Referenzpräparat/Biosimilar\nDie Behandlung mit ABRILADA bedarf der Kostengutsprache durch den Krankenversicherer nach vorgängiger Konsultation des Vertrauensarztes. Für die Behandlung mit ABRILADA ist keine neue Kostengutsprache nötig, wenn in derselben Indikation bereits eine Kostengutsprache für das Referenzpräparat oder ein anderes Biosimilar besteht.\n\nAktive rheumatoide Arthritis\nBehandlung mit ABRILADA, wenn die vorausgegangene antirheumatische Standardtherapie mit krankheitsmodifizierenden Antirheumatika (DMARDs) unzulänglich war.\n\nAktive polyartikuläre juvenile idiopathische Arthritis bei Kindern und Jugendlichen ab einem Körpergewicht von ≥ 30 kg\nBehandlung mit ABRILADA, wenn die vorausgegangene Standardtherapie mit krankheitsmodifizierenden Antirheumatika (DMARDs) unzulänglich war.\n\nPsoriasis-Arthritis\nBehandlung mit ABRILADA, wenn die vorausgegangene Standardtherapie mit krankheitsmodifizierenden Antirheumatika (DMARDs) unzulänglich war.\n\nAnkylosierende Spondylitis (Morbus Bechterew)\nBehandlung mit ABRILADA, wenn die vorausgegangene konventionelle Therapie unzulänglich war oder nicht vertragen wurde.\n\nAktiver Morbus Crohn\nBehandlung erwachsener Patienten mit ABRILADA, wenn die vorausgegangene konventionelle Therapie (z.B. mit Azathioprin, 6-Mercaptopurin oder Glukokortikoiden) unzulänglich war, sowie bei Patienten, die nicht mehr auf Infliximab ansprechen oder dieses nicht vertragen. Nach zwei Jahren ununterbrochener Therapie bedarf die Behandlung einer erneuten Kostengutsprache durch den Krankenversicherer nach vorgängiger Konsultation des Vertrauensarztes.\n\nModerate bis schwere Colitis ulcerosa\nBehandlung erwachsener Patienten mit ABRILADA, wenn die vorausgegangene konventionelle Therapie (z.B. mit Azathioprin, 6-Mercaptopurin oder Glukokortikoiden) unzulänglich war oder nicht vertragen wurde.\n\nDie Verschreibung von ABRILADA für die folgenden Behandlungen kann nur durch Fachärzte der Dermatologie oder dermatologische Universitätskliniken/ Polikliniken erfolgen:\n\nSchwere Plaque-Psoriasis\nBehandlung erwachsener Patienten mit schwerer Plaque-Psoriasis, bei denen eine Phototherapie oder eine der folgenden konventionellen systemischen Therapien (Ciclosporin, Methotrexat, Acitretin) keinen therapeutischen Erfolg gezeigt haben. Falls nach 16 Wochen kein therapeutischer Erfolg eingetreten ist, ist die Behandlung abzubrechen.\n\nAktive, mittelschwere bis schwere Hidradenitis suppurativa (Acne inversa)\nBehandlung erwachsener Patienten, wenn die vorausgegangene systemische Therapie mit Antibiotika unzulänglich war. Bei Patienten, die nach 12 Wochen kein Ansprechen nach HiSCR von mindestens 50% zeigen, ist die Behandlung abzubrechen. Nach 52 Wochen ununterbrochener Therapie bedarf die Behandlung einer erneuten Kostengutsprache durch den Krankenversicherer nach vorgängiger Konsultation des Vertrauensarztes.; identifier = http://fhir.ch/ig/ch-epl/sid/mpid#Medical Product Identifier#CH-7601001010604-6783101; indication = Rheumatoide Arthritis\nAbrilada ist indiziert zur Reduzierung der Anzeichen und Symptome sowie zur Verlangsamung der Progression struktureller Schäden und zur Verbesserung der körperlichen Funktionsfähigkeit bei erwachsenen Patienten mit einer mässig bis stark ausgeprägten aktiven rheumatoiden Arthritis, die nur unzureichend auf krankheitsmodifizierende Antirheumatika (DMARDs) angesprochen haben.\nAbrilada kann als Monotherapie oder in Kombination mit Methotrexat bzw. anderen krankheitsmodifizierenden Antirheumatika eingesetzt werden, wobei aber die Kombination von Adalimumab mit Ciclosporin, Azathioprin und anderen anti-TNF-α-Therapien nicht untersucht worden ist.\nBei Patienten, bei denen eine mässig bis stark ausgeprägte rheumatoide Arthritis erst kürzlich (&lt;3 Jahre) diagnostiziert wurde und die zuvor nicht mit Methotrexat behandelt worden war, konnte eine Wirksamkeit von Adalimumab in Kombination mit Methotrexat gezeigt werden.\n\nPolyartikuläre juvenile idiopathische Arthritis (ab 30 kg Körpergewicht)\nAbrilada ist in Kombination mit Methotrexat indiziert zur Behandlung der aktiven polyartikulären juvenilen idiopathischen Arthritis bei Kindern und Jugendlichen ab 30 kg Körpergewicht, die nur unzureichend auf ein oder mehrere krankheitsmodifizierende Antirheumatika (DMARDs), einschliesslich Methotrexat, angesprochen haben oder eine solche Therapie nicht tolerieren. Abrilada kann im Falle einer Unverträglichkeit gegenüber Methotrexat oder, wenn die weitere Behandlung mit Methotrexat nicht möglich ist, als Monotherapie angewendet werden. Bei Kindern, die jünger als 4 Jahre sind, wurde Adalimumab nicht untersucht.\n\nPsoriasis-Arthritis\nAbrilada ist indiziert zur Reduzierung der Anzeichen und Symptome der Psoriasis-Arthritis bei Patienten mit ungenügendem Ansprechen auf krankheitsmodifizierende Antirheumatika. Abrilada reduziert die Progressionsrate struktureller Schäden und verbessert die körperliche Funktionsfähigkeit bei Patienten mit der polyartikulären, symmetrischen Form der Erkrankung. Abrilada kann als Monotherapie oder in Kombination mit krankheitsmodifizierenden Antirheumatika angewendet werden.\n\nAnkylosierende Spondylitis (Morbus Bechterew)\nAbrilada ist indiziert zur Behandlung von erwachsenen Patienten mit aktiver ankylosierender Spondylitis, die nur unzureichend auf herkömmliche Therapien angesprochen haben.\n\nMorbus Crohn\nAbrilada ist indiziert zur Behandlung von erwachsenen Patienten mit einem Morbus Crohn mit mässiger bis hoher Krankheitsaktivität, die nur unzureichend auf herkömmliche Therapien angesprochen haben, sowie bei erwachsenen Patienten, die nicht mehr auf Infliximab ansprechen oder dieses nicht vertragen.\n\nColitis ulcerosa\nAbrilada ist indiziert zur Behandlung der mittelschweren bis schweren aktiven Colitis ulcerosa bei erwachsenen Patienten, die auf die herkömmliche Therapie, einschliesslich Glukokortikoide und/oder 6-Mercaptopurin (6-MP) oder Azathioprin (AZA), unzureichend angesprochen haben oder die eine Unverträglichkeit gegen eine solche Therapie haben oder bei denen eine solche Therapie kontraindiziert ist.\n\nPsoriasis\nAbrilada ist als Monotherapie indiziert zur Behandlung von erwachsenen Patienten mit mittelschwerer bis schwerer, chronischer Plaque-Psoriasis, bei denen eine systemische Therapie oder eine PUVA-Therapie angezeigt ist.\n\nPsoriasis bei Kindern und Jugendlichen (ab 30 kg Körpergewicht)\nAbrilada ist indiziert zur Behandlung der schweren chronischen Plaque-Psoriasis bei Kindern und Jugendlichen mit einem Körpergewicht ≥30 kg, die nur unzureichend auf Phototherapien oder systemische Vortherapien angesprochen haben oder für die diese Therapien nicht geeignet sind.\n\nHidradenitis suppurativa (Acne inversa)\nAbrilada ist indiziert zur Behandlung von erwachsenen Patienten mit aktiver mittelschwerer bis schwerer Hidradenitis suppurativa (Acne inversa), die unzureichend auf eine systemische Antibiotikatherapie angesprochen haben.\n\nUveitis\nAbrilada ist indiziert zur Induktion (in Kombination mit Kortikosteroiden) und Erhaltung einer Remission bei erwachsenen Patienten mit Kortikosteroid-abhängiger nicht-infektiöser intermediärer Uveitis, posteriorer Uveitis oder Panuveitis, die nur unzureichend auf Kortikosteroide mit oder ohne Immunmodulatoren angesprochen haben oder die eine Kortikoid sparende Behandlung benötigen. Die Kombination mit Kortikosteroiden und/oder Immunmodulatoren richtet sich nach dem anatomischen und funktionellen Verlauf.; legalStatusOfSupply = Medicinal product subject to medical or veterinary prescription (B); additionalMonitoringIndicator = No Warning; pediatricUseIndicator = Authorised for the treatment in children; classification = adalimumab,Extension for biosimilar,Biologics,Originator product,07. STOFFWECHSEL</a></p><p><b>administrableDoseForm</b>: <span title=\"Codes:{http://standardterms.edqm.eu 11201000}\">Solution for injection</span></p><p><b>unitOfPresentation</b>: <span title=\"Codes:{http://standardterms.edqm.eu 15037000}\">Pen</span></p><h3>RouteOfAdministrations</h3><table class=\"grid\"><tr><td style=\"display: none\">-</td><td><b>Code</b></td></tr><tr><td style=\"display: none\">*</td><td><span title=\"Codes:{http://standardterms.edqm.eu 20066000}\">Subcutaneous use</span></td></tr></table></div>"
      },
      "status" : "active",
      "formOf" : [{
        "reference" : "MedicinalProductDefinition/Abrilada-40mg-Pre-Filled-Pen"
      }],
      "administrableDoseForm" : {
        "coding" : [{
          "system" : "http://standardterms.edqm.eu",
          "code" : "11201000",
          "display" : "Solution for injection"
        }]
      },
      "unitOfPresentation" : {
        "coding" : [{
          "system" : "http://standardterms.edqm.eu",
          "code" : "15037000",
          "display" : "Pen"
        }]
      },
      "routeOfAdministration" : [{
        "code" : {
          "coding" : [{
            "system" : "http://standardterms.edqm.eu",
            "code" : "20066000",
            "display" : "Subcutaneous use"
          }]
        }
      }]
    }
  },
  {
    "fullUrl" : "http://fhir.epl.bag.admin.ch/CHIDMPIngredient/Adalimumabum40",
    "resource" : {
      "resourceType" : "Ingredient",
      "id" : "Adalimumabum40",
      "meta" : {
        "profile" : ["http://fhir.ch/ig/ch-epl/StructureDefinition/ch-idmp-ingredient"]
      },
      "text" : {
        "status" : "generated",
        "div" : "<div xmlns=\"http://www.w3.org/1999/xhtml\"><a name=\"Ingredient_Adalimumabum40\"> </a><p class=\"res-header-id\"><b>Generated Narrative: Ingredient Adalimumabum40</b></p><a name=\"Adalimumabum40\"> </a><a name=\"hcAdalimumabum40\"> </a><div style=\"display: inline-block; background-color: #d9e0e7; padding: 6px; margin: 4px; border: 1px solid #8da1b4; border-radius: 5px; line-height: 60%\"><p style=\"margin-bottom: 0px\"/><p style=\"margin-bottom: 0px\">Profile: <a href=\"StructureDefinition-ch-idmp-ingredient.html\">IDMP Ingredient</a></p></div><p><b>status</b>: Active</p><p><b>for</b>: </p><ul><li><a href=\"AdministrableProductDefinition-PhP-Abrilada-40mg-Pre-Filled-Pen.html\">AdministrableProductDefinition: status = active; administrableDoseForm = Solution for injection; unitOfPresentation = Pen</a></li><li><a href=\"ManufacturedItemDefinition-MI-Abrilada-40mg-Pre-Filled-Pen.html\">ManufacturedItemDefinition: status = active; manufacturedDoseForm = Solution for Injection; unitOfPresentation = Pen</a></li></ul><p><b>role</b>: <span title=\"Codes:{http://fhir.ch/ig/ch-epl/CodeSystem/ch-SMC-ingredient-role 756005051001}\">Active</span></p><blockquote><p><b>substance</b></p><h3>Codes</h3><table class=\"grid\"><tr><td style=\"display: none\">-</td><td><b>Concept</b></td></tr><tr><td style=\"display: none\">*</td><td><span title=\"Codes:{http://fhir.ch/ig/ch-epl/CodeSystem/ch-SMC-substance FYS6T7F842}\">Adalimumab</span></td></tr></table><h3>Strengths</h3><table class=\"grid\"><tr><td style=\"display: none\">-</td><td><b>Presentation[x]</b></td></tr><tr><td style=\"display: none\">*</td><td>40 mg<span style=\"background: LightGoldenRodYellow\"> (Details: UCUM  codemg = 'mg')</span>/1 Pen<span style=\"background: LightGoldenRodYellow\"> (Details: EDQM - Standard Terms  code15037000 = 'Pen')</span></td></tr></table></blockquote></div>"
      },
      "status" : "active",
      "for" : [{
        "reference" : "AdministrableProductDefinition/PhP-Abrilada-40mg-Pre-Filled-Pen"
      },
      {
        "reference" : "ManufacturedItemDefinition/MI-Abrilada-40mg-Pre-Filled-Pen"
      }],
      "role" : {
        "coding" : [{
          "system" : "http://fhir.ch/ig/ch-epl/CodeSystem/ch-SMC-ingredient-role",
          "code" : "756005051001",
          "display" : "Active"
        }]
      },
      "substance" : {
        "code" : {
          "concept" : {
            "coding" : [{
              "system" : "http://fhir.ch/ig/ch-epl/CodeSystem/ch-SMC-substance",
              "code" : "FYS6T7F842",
              "display" : "Adalimumab"
            }]
          }
        },
        "strength" : [{
          "presentationRatio" : {
            "numerator" : {
              "value" : 40,
              "unit" : "mg",
              "system" : "http://unitsofmeasure.org",
              "code" : "mg"
            },
            "denominator" : {
              "value" : 1,
              "unit" : "Pen",
              "system" : "http://standardterms.edqm.eu",
              "code" : "15037000"
            }
          }
        }]
      }
    }
  },
  {
    "fullUrl" : "http://fhir.epl.bag.admin.ch/CHIDMPClinicalUseDefinition/IND-10003268",
    "resource" : {
      "resourceType" : "ClinicalUseDefinition",
      "id" : "IND-10003268",
      "meta" : {
        "profile" : ["http://fhir.ch/ig/ch-epl/StructureDefinition/ch-idmp-clinicalusedefinition-indication"]
      },
      "text" : {
        "status" : "generated",
        "div" : "<div xmlns=\"http://www.w3.org/1999/xhtml\"><a name=\"ClinicalUseDefinition_IND-10003268\"> </a><p class=\"res-header-id\"><b>Generated Narrative: ClinicalUseDefinition IND-10003268</b></p><a name=\"IND-10003268\"> </a><a name=\"hcIND-10003268\"> </a><div style=\"display: inline-block; background-color: #d9e0e7; padding: 6px; margin: 4px; border: 1px solid #8da1b4; border-radius: 5px; line-height: 60%\"><p style=\"margin-bottom: 0px\"/><p style=\"margin-bottom: 0px\">Profile: <a href=\"StructureDefinition-ch-idmp-clinicalusedefinition-indication.html\">CH IDMP ClinicalUseDefinition Indication</a></p></div><p><b>type</b>: Indication</p><p><b>subject</b>: <a href=\"MedicinalProductDefinition-Abrilada-40mg-Pre-Filled-Pen.html\">MedicinalProductDefinition: extension = Solution for injection,Austausch Referenzpräparat/Biosimilar\nDie Behandlung mit ABRILADA bedarf der Kostengutsprache durch den Krankenversicherer nach vorgängiger Konsultation des Vertrauensarztes. Für die Behandlung mit ABRILADA ist keine neue Kostengutsprache nötig, wenn in derselben Indikation bereits eine Kostengutsprache für das Referenzpräparat oder ein anderes Biosimilar besteht.\n\nAktive rheumatoide Arthritis\nBehandlung mit ABRILADA, wenn die vorausgegangene antirheumatische Standardtherapie mit krankheitsmodifizierenden Antirheumatika (DMARDs) unzulänglich war.\n\nAktive polyartikuläre juvenile idiopathische Arthritis bei Kindern und Jugendlichen ab einem Körpergewicht von ≥ 30 kg\nBehandlung mit ABRILADA, wenn die vorausgegangene Standardtherapie mit krankheitsmodifizierenden Antirheumatika (DMARDs) unzulänglich war.\n\nPsoriasis-Arthritis\nBehandlung mit ABRILADA, wenn die vorausgegangene Standardtherapie mit krankheitsmodifizierenden Antirheumatika (DMARDs) unzulänglich war.\n\nAnkylosierende Spondylitis (Morbus Bechterew)\nBehandlung mit ABRILADA, wenn die vorausgegangene konventionelle Therapie unzulänglich war oder nicht vertragen wurde.\n\nAktiver Morbus Crohn\nBehandlung erwachsener Patienten mit ABRILADA, wenn die vorausgegangene konventionelle Therapie (z.B. mit Azathioprin, 6-Mercaptopurin oder Glukokortikoiden) unzulänglich war, sowie bei Patienten, die nicht mehr auf Infliximab ansprechen oder dieses nicht vertragen. Nach zwei Jahren ununterbrochener Therapie bedarf die Behandlung einer erneuten Kostengutsprache durch den Krankenversicherer nach vorgängiger Konsultation des Vertrauensarztes.\n\nModerate bis schwere Colitis ulcerosa\nBehandlung erwachsener Patienten mit ABRILADA, wenn die vorausgegangene konventionelle Therapie (z.B. mit Azathioprin, 6-Mercaptopurin oder Glukokortikoiden) unzulänglich war oder nicht vertragen wurde.\n\nDie Verschreibung von ABRILADA für die folgenden Behandlungen kann nur durch Fachärzte der Dermatologie oder dermatologische Universitätskliniken/ Polikliniken erfolgen:\n\nSchwere Plaque-Psoriasis\nBehandlung erwachsener Patienten mit schwerer Plaque-Psoriasis, bei denen eine Phototherapie oder eine der folgenden konventionellen systemischen Therapien (Ciclosporin, Methotrexat, Acitretin) keinen therapeutischen Erfolg gezeigt haben. Falls nach 16 Wochen kein therapeutischer Erfolg eingetreten ist, ist die Behandlung abzubrechen.\n\nAktive, mittelschwere bis schwere Hidradenitis suppurativa (Acne inversa)\nBehandlung erwachsener Patienten, wenn die vorausgegangene systemische Therapie mit Antibiotika unzulänglich war. Bei Patienten, die nach 12 Wochen kein Ansprechen nach HiSCR von mindestens 50% zeigen, ist die Behandlung abzubrechen. Nach 52 Wochen ununterbrochener Therapie bedarf die Behandlung einer erneuten Kostengutsprache durch den Krankenversicherer nach vorgängiger Konsultation des Vertrauensarztes.; identifier = http://fhir.ch/ig/ch-epl/sid/mpid#Medical Product Identifier#CH-7601001010604-6783101; indication = Rheumatoide Arthritis\nAbrilada ist indiziert zur Reduzierung der Anzeichen und Symptome sowie zur Verlangsamung der Progression struktureller Schäden und zur Verbesserung der körperlichen Funktionsfähigkeit bei erwachsenen Patienten mit einer mässig bis stark ausgeprägten aktiven rheumatoiden Arthritis, die nur unzureichend auf krankheitsmodifizierende Antirheumatika (DMARDs) angesprochen haben.\nAbrilada kann als Monotherapie oder in Kombination mit Methotrexat bzw. anderen krankheitsmodifizierenden Antirheumatika eingesetzt werden, wobei aber die Kombination von Adalimumab mit Ciclosporin, Azathioprin und anderen anti-TNF-α-Therapien nicht untersucht worden ist.\nBei Patienten, bei denen eine mässig bis stark ausgeprägte rheumatoide Arthritis erst kürzlich (&lt;3 Jahre) diagnostiziert wurde und die zuvor nicht mit Methotrexat behandelt worden war, konnte eine Wirksamkeit von Adalimumab in Kombination mit Methotrexat gezeigt werden.\n\nPolyartikuläre juvenile idiopathische Arthritis (ab 30 kg Körpergewicht)\nAbrilada ist in Kombination mit Methotrexat indiziert zur Behandlung der aktiven polyartikulären juvenilen idiopathischen Arthritis bei Kindern und Jugendlichen ab 30 kg Körpergewicht, die nur unzureichend auf ein oder mehrere krankheitsmodifizierende Antirheumatika (DMARDs), einschliesslich Methotrexat, angesprochen haben oder eine solche Therapie nicht tolerieren. Abrilada kann im Falle einer Unverträglichkeit gegenüber Methotrexat oder, wenn die weitere Behandlung mit Methotrexat nicht möglich ist, als Monotherapie angewendet werden. Bei Kindern, die jünger als 4 Jahre sind, wurde Adalimumab nicht untersucht.\n\nPsoriasis-Arthritis\nAbrilada ist indiziert zur Reduzierung der Anzeichen und Symptome der Psoriasis-Arthritis bei Patienten mit ungenügendem Ansprechen auf krankheitsmodifizierende Antirheumatika. Abrilada reduziert die Progressionsrate struktureller Schäden und verbessert die körperliche Funktionsfähigkeit bei Patienten mit der polyartikulären, symmetrischen Form der Erkrankung. Abrilada kann als Monotherapie oder in Kombination mit krankheitsmodifizierenden Antirheumatika angewendet werden.\n\nAnkylosierende Spondylitis (Morbus Bechterew)\nAbrilada ist indiziert zur Behandlung von erwachsenen Patienten mit aktiver ankylosierender Spondylitis, die nur unzureichend auf herkömmliche Therapien angesprochen haben.\n\nMorbus Crohn\nAbrilada ist indiziert zur Behandlung von erwachsenen Patienten mit einem Morbus Crohn mit mässiger bis hoher Krankheitsaktivität, die nur unzureichend auf herkömmliche Therapien angesprochen haben, sowie bei erwachsenen Patienten, die nicht mehr auf Infliximab ansprechen oder dieses nicht vertragen.\n\nColitis ulcerosa\nAbrilada ist indiziert zur Behandlung der mittelschweren bis schweren aktiven Colitis ulcerosa bei erwachsenen Patienten, die auf die herkömmliche Therapie, einschliesslich Glukokortikoide und/oder 6-Mercaptopurin (6-MP) oder Azathioprin (AZA), unzureichend angesprochen haben oder die eine Unverträglichkeit gegen eine solche Therapie haben oder bei denen eine solche Therapie kontraindiziert ist.\n\nPsoriasis\nAbrilada ist als Monotherapie indiziert zur Behandlung von erwachsenen Patienten mit mittelschwerer bis schwerer, chronischer Plaque-Psoriasis, bei denen eine systemische Therapie oder eine PUVA-Therapie angezeigt ist.\n\nPsoriasis bei Kindern und Jugendlichen (ab 30 kg Körpergewicht)\nAbrilada ist indiziert zur Behandlung der schweren chronischen Plaque-Psoriasis bei Kindern und Jugendlichen mit einem Körpergewicht ≥30 kg, die nur unzureichend auf Phototherapien oder systemische Vortherapien angesprochen haben oder für die diese Therapien nicht geeignet sind.\n\nHidradenitis suppurativa (Acne inversa)\nAbrilada ist indiziert zur Behandlung von erwachsenen Patienten mit aktiver mittelschwerer bis schwerer Hidradenitis suppurativa (Acne inversa), die unzureichend auf eine systemische Antibiotikatherapie angesprochen haben.\n\nUveitis\nAbrilada ist indiziert zur Induktion (in Kombination mit Kortikosteroiden) und Erhaltung einer Remission bei erwachsenen Patienten mit Kortikosteroid-abhängiger nicht-infektiöser intermediärer Uveitis, posteriorer Uveitis oder Panuveitis, die nur unzureichend auf Kortikosteroide mit oder ohne Immunmodulatoren angesprochen haben oder die eine Kortikoid sparende Behandlung benötigen. Die Kombination mit Kortikosteroiden und/oder Immunmodulatoren richtet sich nach dem anatomischen und funktionellen Verlauf.; legalStatusOfSupply = Medicinal product subject to medical or veterinary prescription (B); additionalMonitoringIndicator = No Warning; pediatricUseIndicator = Authorised for the treatment in children; classification = adalimumab,Extension for biosimilar,Biologics,Originator product,07. STOFFWECHSEL</a></p><blockquote><p><b>indication</b></p><h3>DiseaseSymptomProcedures</h3><table class=\"grid\"><tr><td style=\"display: none\">-</td><td><b>Concept</b></td></tr><tr><td style=\"display: none\">*</td><td><span title=\"Codes:{https://www.meddra.org 10003268}\">Arthritis rheumatoid</span></td></tr></table><h3>IntendedEffects</h3><table class=\"grid\"><tr><td style=\"display: none\">-</td><td><b>Concept</b></td></tr><tr><td style=\"display: none\">*</td><td><span title=\"Codes:{http://spor.ema.europa.eu/v1/lists/200000003186 200000003194}\">therapeutic</span></td></tr></table></blockquote></div>"
      },
      "type" : "indication",
      "subject" : [{
        "reference" : "MedicinalProductDefinition/Abrilada-40mg-Pre-Filled-Pen"
      }],
      "indication" : {
        "diseaseSymptomProcedure" : {
          "concept" : {
            "coding" : [{
              "system" : "https://www.meddra.org",
              "code" : "10003268",
              "display" : "Arthritis rheumatoid"
            }]
          }
        },
        "intendedEffect" : {
          "concept" : {
            "coding" : [{
              "system" : "http://spor.ema.europa.eu/v1/lists/200000003186",
              "code" : "200000003194",
              "display" : "therapeutic"
            }]
          }
        }
      }
    }
  },
  {
    "fullUrl" : "http://fhir.epl.bag.admin.ch/CHIDMPClinicalUseDefinition/IND-10089182",
    "resource" : {
      "resourceType" : "ClinicalUseDefinition",
      "id" : "IND-10089182",
      "meta" : {
        "profile" : ["http://fhir.ch/ig/ch-epl/StructureDefinition/ch-idmp-clinicalusedefinition-indication"]
      },
      "text" : {
        "status" : "generated",
        "div" : "<div xmlns=\"http://www.w3.org/1999/xhtml\"><a name=\"ClinicalUseDefinition_IND-10089182\"> </a><p class=\"res-header-id\"><b>Generated Narrative: ClinicalUseDefinition IND-10089182</b></p><a name=\"IND-10089182\"> </a><a name=\"hcIND-10089182\"> </a><div style=\"display: inline-block; background-color: #d9e0e7; padding: 6px; margin: 4px; border: 1px solid #8da1b4; border-radius: 5px; line-height: 60%\"><p style=\"margin-bottom: 0px\"/><p style=\"margin-bottom: 0px\">Profile: <a href=\"StructureDefinition-ch-idmp-clinicalusedefinition-indication.html\">CH IDMP ClinicalUseDefinition Indication</a></p></div><p><b>type</b>: Indication</p><p><b>subject</b>: <a href=\"MedicinalProductDefinition-Abrilada-40mg-Pre-Filled-Pen.html\">MedicinalProductDefinition: extension = Solution for injection,Austausch Referenzpräparat/Biosimilar\nDie Behandlung mit ABRILADA bedarf der Kostengutsprache durch den Krankenversicherer nach vorgängiger Konsultation des Vertrauensarztes. Für die Behandlung mit ABRILADA ist keine neue Kostengutsprache nötig, wenn in derselben Indikation bereits eine Kostengutsprache für das Referenzpräparat oder ein anderes Biosimilar besteht.\n\nAktive rheumatoide Arthritis\nBehandlung mit ABRILADA, wenn die vorausgegangene antirheumatische Standardtherapie mit krankheitsmodifizierenden Antirheumatika (DMARDs) unzulänglich war.\n\nAktive polyartikuläre juvenile idiopathische Arthritis bei Kindern und Jugendlichen ab einem Körpergewicht von ≥ 30 kg\nBehandlung mit ABRILADA, wenn die vorausgegangene Standardtherapie mit krankheitsmodifizierenden Antirheumatika (DMARDs) unzulänglich war.\n\nPsoriasis-Arthritis\nBehandlung mit ABRILADA, wenn die vorausgegangene Standardtherapie mit krankheitsmodifizierenden Antirheumatika (DMARDs) unzulänglich war.\n\nAnkylosierende Spondylitis (Morbus Bechterew)\nBehandlung mit ABRILADA, wenn die vorausgegangene konventionelle Therapie unzulänglich war oder nicht vertragen wurde.\n\nAktiver Morbus Crohn\nBehandlung erwachsener Patienten mit ABRILADA, wenn die vorausgegangene konventionelle Therapie (z.B. mit Azathioprin, 6-Mercaptopurin oder Glukokortikoiden) unzulänglich war, sowie bei Patienten, die nicht mehr auf Infliximab ansprechen oder dieses nicht vertragen. Nach zwei Jahren ununterbrochener Therapie bedarf die Behandlung einer erneuten Kostengutsprache durch den Krankenversicherer nach vorgängiger Konsultation des Vertrauensarztes.\n\nModerate bis schwere Colitis ulcerosa\nBehandlung erwachsener Patienten mit ABRILADA, wenn die vorausgegangene konventionelle Therapie (z.B. mit Azathioprin, 6-Mercaptopurin oder Glukokortikoiden) unzulänglich war oder nicht vertragen wurde.\n\nDie Verschreibung von ABRILADA für die folgenden Behandlungen kann nur durch Fachärzte der Dermatologie oder dermatologische Universitätskliniken/ Polikliniken erfolgen:\n\nSchwere Plaque-Psoriasis\nBehandlung erwachsener Patienten mit schwerer Plaque-Psoriasis, bei denen eine Phototherapie oder eine der folgenden konventionellen systemischen Therapien (Ciclosporin, Methotrexat, Acitretin) keinen therapeutischen Erfolg gezeigt haben. Falls nach 16 Wochen kein therapeutischer Erfolg eingetreten ist, ist die Behandlung abzubrechen.\n\nAktive, mittelschwere bis schwere Hidradenitis suppurativa (Acne inversa)\nBehandlung erwachsener Patienten, wenn die vorausgegangene systemische Therapie mit Antibiotika unzulänglich war. Bei Patienten, die nach 12 Wochen kein Ansprechen nach HiSCR von mindestens 50% zeigen, ist die Behandlung abzubrechen. Nach 52 Wochen ununterbrochener Therapie bedarf die Behandlung einer erneuten Kostengutsprache durch den Krankenversicherer nach vorgängiger Konsultation des Vertrauensarztes.; identifier = http://fhir.ch/ig/ch-epl/sid/mpid#Medical Product Identifier#CH-7601001010604-6783101; indication = Rheumatoide Arthritis\nAbrilada ist indiziert zur Reduzierung der Anzeichen und Symptome sowie zur Verlangsamung der Progression struktureller Schäden und zur Verbesserung der körperlichen Funktionsfähigkeit bei erwachsenen Patienten mit einer mässig bis stark ausgeprägten aktiven rheumatoiden Arthritis, die nur unzureichend auf krankheitsmodifizierende Antirheumatika (DMARDs) angesprochen haben.\nAbrilada kann als Monotherapie oder in Kombination mit Methotrexat bzw. anderen krankheitsmodifizierenden Antirheumatika eingesetzt werden, wobei aber die Kombination von Adalimumab mit Ciclosporin, Azathioprin und anderen anti-TNF-α-Therapien nicht untersucht worden ist.\nBei Patienten, bei denen eine mässig bis stark ausgeprägte rheumatoide Arthritis erst kürzlich (&lt;3 Jahre) diagnostiziert wurde und die zuvor nicht mit Methotrexat behandelt worden war, konnte eine Wirksamkeit von Adalimumab in Kombination mit Methotrexat gezeigt werden.\n\nPolyartikuläre juvenile idiopathische Arthritis (ab 30 kg Körpergewicht)\nAbrilada ist in Kombination mit Methotrexat indiziert zur Behandlung der aktiven polyartikulären juvenilen idiopathischen Arthritis bei Kindern und Jugendlichen ab 30 kg Körpergewicht, die nur unzureichend auf ein oder mehrere krankheitsmodifizierende Antirheumatika (DMARDs), einschliesslich Methotrexat, angesprochen haben oder eine solche Therapie nicht tolerieren. Abrilada kann im Falle einer Unverträglichkeit gegenüber Methotrexat oder, wenn die weitere Behandlung mit Methotrexat nicht möglich ist, als Monotherapie angewendet werden. Bei Kindern, die jünger als 4 Jahre sind, wurde Adalimumab nicht untersucht.\n\nPsoriasis-Arthritis\nAbrilada ist indiziert zur Reduzierung der Anzeichen und Symptome der Psoriasis-Arthritis bei Patienten mit ungenügendem Ansprechen auf krankheitsmodifizierende Antirheumatika. Abrilada reduziert die Progressionsrate struktureller Schäden und verbessert die körperliche Funktionsfähigkeit bei Patienten mit der polyartikulären, symmetrischen Form der Erkrankung. Abrilada kann als Monotherapie oder in Kombination mit krankheitsmodifizierenden Antirheumatika angewendet werden.\n\nAnkylosierende Spondylitis (Morbus Bechterew)\nAbrilada ist indiziert zur Behandlung von erwachsenen Patienten mit aktiver ankylosierender Spondylitis, die nur unzureichend auf herkömmliche Therapien angesprochen haben.\n\nMorbus Crohn\nAbrilada ist indiziert zur Behandlung von erwachsenen Patienten mit einem Morbus Crohn mit mässiger bis hoher Krankheitsaktivität, die nur unzureichend auf herkömmliche Therapien angesprochen haben, sowie bei erwachsenen Patienten, die nicht mehr auf Infliximab ansprechen oder dieses nicht vertragen.\n\nColitis ulcerosa\nAbrilada ist indiziert zur Behandlung der mittelschweren bis schweren aktiven Colitis ulcerosa bei erwachsenen Patienten, die auf die herkömmliche Therapie, einschliesslich Glukokortikoide und/oder 6-Mercaptopurin (6-MP) oder Azathioprin (AZA), unzureichend angesprochen haben oder die eine Unverträglichkeit gegen eine solche Therapie haben oder bei denen eine solche Therapie kontraindiziert ist.\n\nPsoriasis\nAbrilada ist als Monotherapie indiziert zur Behandlung von erwachsenen Patienten mit mittelschwerer bis schwerer, chronischer Plaque-Psoriasis, bei denen eine systemische Therapie oder eine PUVA-Therapie angezeigt ist.\n\nPsoriasis bei Kindern und Jugendlichen (ab 30 kg Körpergewicht)\nAbrilada ist indiziert zur Behandlung der schweren chronischen Plaque-Psoriasis bei Kindern und Jugendlichen mit einem Körpergewicht ≥30 kg, die nur unzureichend auf Phototherapien oder systemische Vortherapien angesprochen haben oder für die diese Therapien nicht geeignet sind.\n\nHidradenitis suppurativa (Acne inversa)\nAbrilada ist indiziert zur Behandlung von erwachsenen Patienten mit aktiver mittelschwerer bis schwerer Hidradenitis suppurativa (Acne inversa), die unzureichend auf eine systemische Antibiotikatherapie angesprochen haben.\n\nUveitis\nAbrilada ist indiziert zur Induktion (in Kombination mit Kortikosteroiden) und Erhaltung einer Remission bei erwachsenen Patienten mit Kortikosteroid-abhängiger nicht-infektiöser intermediärer Uveitis, posteriorer Uveitis oder Panuveitis, die nur unzureichend auf Kortikosteroide mit oder ohne Immunmodulatoren angesprochen haben oder die eine Kortikoid sparende Behandlung benötigen. Die Kombination mit Kortikosteroiden und/oder Immunmodulatoren richtet sich nach dem anatomischen und funktionellen Verlauf.; legalStatusOfSupply = Medicinal product subject to medical or veterinary prescription (B); additionalMonitoringIndicator = No Warning; pediatricUseIndicator = Authorised for the treatment in children; classification = adalimumab,Extension for biosimilar,Biologics,Originator product,07. STOFFWECHSEL</a></p><blockquote><p><b>indication</b></p><h3>DiseaseSymptomProcedures</h3><table class=\"grid\"><tr><td style=\"display: none\">-</td><td><b>Concept</b></td></tr><tr><td style=\"display: none\">*</td><td><span title=\"Codes:{https://www.meddra.org 10089182}\">Polyarticular juvenile idiopathic arthritis</span></td></tr></table><h3>IntendedEffects</h3><table class=\"grid\"><tr><td style=\"display: none\">-</td><td><b>Concept</b></td></tr><tr><td style=\"display: none\">*</td><td><span title=\"Codes:{http://spor.ema.europa.eu/v1/lists/200000003186 200000003194}\">therapeutic</span></td></tr></table></blockquote></div>"
      },
      "type" : "indication",
      "subject" : [{
        "reference" : "MedicinalProductDefinition/Abrilada-40mg-Pre-Filled-Pen"
      }],
      "indication" : {
        "diseaseSymptomProcedure" : {
          "concept" : {
            "coding" : [{
              "system" : "https://www.meddra.org",
              "code" : "10089182",
              "display" : "Polyarticular juvenile idiopathic arthritis"
            }]
          }
        },
        "intendedEffect" : {
          "concept" : {
            "coding" : [{
              "system" : "http://spor.ema.europa.eu/v1/lists/200000003186",
              "code" : "200000003194",
              "display" : "therapeutic"
            }]
          }
        }
      }
    }
  },
  {
    "fullUrl" : "http://fhir.epl.bag.admin.ch/CHIDMPClinicalUseDefinition/IND-10037160",
    "resource" : {
      "resourceType" : "ClinicalUseDefinition",
      "id" : "IND-10037160",
      "meta" : {
        "profile" : ["http://fhir.ch/ig/ch-epl/StructureDefinition/ch-idmp-clinicalusedefinition-indication"]
      },
      "text" : {
        "status" : "generated",
        "div" : "<div xmlns=\"http://www.w3.org/1999/xhtml\"><a name=\"ClinicalUseDefinition_IND-10037160\"> </a><p class=\"res-header-id\"><b>Generated Narrative: ClinicalUseDefinition IND-10037160</b></p><a name=\"IND-10037160\"> </a><a name=\"hcIND-10037160\"> </a><div style=\"display: inline-block; background-color: #d9e0e7; padding: 6px; margin: 4px; border: 1px solid #8da1b4; border-radius: 5px; line-height: 60%\"><p style=\"margin-bottom: 0px\"/><p style=\"margin-bottom: 0px\">Profile: <a href=\"StructureDefinition-ch-idmp-clinicalusedefinition-indication.html\">CH IDMP ClinicalUseDefinition Indication</a></p></div><p><b>type</b>: Indication</p><p><b>subject</b>: <a href=\"MedicinalProductDefinition-Abrilada-40mg-Pre-Filled-Pen.html\">MedicinalProductDefinition: extension = Solution for injection,Austausch Referenzpräparat/Biosimilar\nDie Behandlung mit ABRILADA bedarf der Kostengutsprache durch den Krankenversicherer nach vorgängiger Konsultation des Vertrauensarztes. Für die Behandlung mit ABRILADA ist keine neue Kostengutsprache nötig, wenn in derselben Indikation bereits eine Kostengutsprache für das Referenzpräparat oder ein anderes Biosimilar besteht.\n\nAktive rheumatoide Arthritis\nBehandlung mit ABRILADA, wenn die vorausgegangene antirheumatische Standardtherapie mit krankheitsmodifizierenden Antirheumatika (DMARDs) unzulänglich war.\n\nAktive polyartikuläre juvenile idiopathische Arthritis bei Kindern und Jugendlichen ab einem Körpergewicht von ≥ 30 kg\nBehandlung mit ABRILADA, wenn die vorausgegangene Standardtherapie mit krankheitsmodifizierenden Antirheumatika (DMARDs) unzulänglich war.\n\nPsoriasis-Arthritis\nBehandlung mit ABRILADA, wenn die vorausgegangene Standardtherapie mit krankheitsmodifizierenden Antirheumatika (DMARDs) unzulänglich war.\n\nAnkylosierende Spondylitis (Morbus Bechterew)\nBehandlung mit ABRILADA, wenn die vorausgegangene konventionelle Therapie unzulänglich war oder nicht vertragen wurde.\n\nAktiver Morbus Crohn\nBehandlung erwachsener Patienten mit ABRILADA, wenn die vorausgegangene konventionelle Therapie (z.B. mit Azathioprin, 6-Mercaptopurin oder Glukokortikoiden) unzulänglich war, sowie bei Patienten, die nicht mehr auf Infliximab ansprechen oder dieses nicht vertragen. Nach zwei Jahren ununterbrochener Therapie bedarf die Behandlung einer erneuten Kostengutsprache durch den Krankenversicherer nach vorgängiger Konsultation des Vertrauensarztes.\n\nModerate bis schwere Colitis ulcerosa\nBehandlung erwachsener Patienten mit ABRILADA, wenn die vorausgegangene konventionelle Therapie (z.B. mit Azathioprin, 6-Mercaptopurin oder Glukokortikoiden) unzulänglich war oder nicht vertragen wurde.\n\nDie Verschreibung von ABRILADA für die folgenden Behandlungen kann nur durch Fachärzte der Dermatologie oder dermatologische Universitätskliniken/ Polikliniken erfolgen:\n\nSchwere Plaque-Psoriasis\nBehandlung erwachsener Patienten mit schwerer Plaque-Psoriasis, bei denen eine Phototherapie oder eine der folgenden konventionellen systemischen Therapien (Ciclosporin, Methotrexat, Acitretin) keinen therapeutischen Erfolg gezeigt haben. Falls nach 16 Wochen kein therapeutischer Erfolg eingetreten ist, ist die Behandlung abzubrechen.\n\nAktive, mittelschwere bis schwere Hidradenitis suppurativa (Acne inversa)\nBehandlung erwachsener Patienten, wenn die vorausgegangene systemische Therapie mit Antibiotika unzulänglich war. Bei Patienten, die nach 12 Wochen kein Ansprechen nach HiSCR von mindestens 50% zeigen, ist die Behandlung abzubrechen. Nach 52 Wochen ununterbrochener Therapie bedarf die Behandlung einer erneuten Kostengutsprache durch den Krankenversicherer nach vorgängiger Konsultation des Vertrauensarztes.; identifier = http://fhir.ch/ig/ch-epl/sid/mpid#Medical Product Identifier#CH-7601001010604-6783101; indication = Rheumatoide Arthritis\nAbrilada ist indiziert zur Reduzierung der Anzeichen und Symptome sowie zur Verlangsamung der Progression struktureller Schäden und zur Verbesserung der körperlichen Funktionsfähigkeit bei erwachsenen Patienten mit einer mässig bis stark ausgeprägten aktiven rheumatoiden Arthritis, die nur unzureichend auf krankheitsmodifizierende Antirheumatika (DMARDs) angesprochen haben.\nAbrilada kann als Monotherapie oder in Kombination mit Methotrexat bzw. anderen krankheitsmodifizierenden Antirheumatika eingesetzt werden, wobei aber die Kombination von Adalimumab mit Ciclosporin, Azathioprin und anderen anti-TNF-α-Therapien nicht untersucht worden ist.\nBei Patienten, bei denen eine mässig bis stark ausgeprägte rheumatoide Arthritis erst kürzlich (&lt;3 Jahre) diagnostiziert wurde und die zuvor nicht mit Methotrexat behandelt worden war, konnte eine Wirksamkeit von Adalimumab in Kombination mit Methotrexat gezeigt werden.\n\nPolyartikuläre juvenile idiopathische Arthritis (ab 30 kg Körpergewicht)\nAbrilada ist in Kombination mit Methotrexat indiziert zur Behandlung der aktiven polyartikulären juvenilen idiopathischen Arthritis bei Kindern und Jugendlichen ab 30 kg Körpergewicht, die nur unzureichend auf ein oder mehrere krankheitsmodifizierende Antirheumatika (DMARDs), einschliesslich Methotrexat, angesprochen haben oder eine solche Therapie nicht tolerieren. Abrilada kann im Falle einer Unverträglichkeit gegenüber Methotrexat oder, wenn die weitere Behandlung mit Methotrexat nicht möglich ist, als Monotherapie angewendet werden. Bei Kindern, die jünger als 4 Jahre sind, wurde Adalimumab nicht untersucht.\n\nPsoriasis-Arthritis\nAbrilada ist indiziert zur Reduzierung der Anzeichen und Symptome der Psoriasis-Arthritis bei Patienten mit ungenügendem Ansprechen auf krankheitsmodifizierende Antirheumatika. Abrilada reduziert die Progressionsrate struktureller Schäden und verbessert die körperliche Funktionsfähigkeit bei Patienten mit der polyartikulären, symmetrischen Form der Erkrankung. Abrilada kann als Monotherapie oder in Kombination mit krankheitsmodifizierenden Antirheumatika angewendet werden.\n\nAnkylosierende Spondylitis (Morbus Bechterew)\nAbrilada ist indiziert zur Behandlung von erwachsenen Patienten mit aktiver ankylosierender Spondylitis, die nur unzureichend auf herkömmliche Therapien angesprochen haben.\n\nMorbus Crohn\nAbrilada ist indiziert zur Behandlung von erwachsenen Patienten mit einem Morbus Crohn mit mässiger bis hoher Krankheitsaktivität, die nur unzureichend auf herkömmliche Therapien angesprochen haben, sowie bei erwachsenen Patienten, die nicht mehr auf Infliximab ansprechen oder dieses nicht vertragen.\n\nColitis ulcerosa\nAbrilada ist indiziert zur Behandlung der mittelschweren bis schweren aktiven Colitis ulcerosa bei erwachsenen Patienten, die auf die herkömmliche Therapie, einschliesslich Glukokortikoide und/oder 6-Mercaptopurin (6-MP) oder Azathioprin (AZA), unzureichend angesprochen haben oder die eine Unverträglichkeit gegen eine solche Therapie haben oder bei denen eine solche Therapie kontraindiziert ist.\n\nPsoriasis\nAbrilada ist als Monotherapie indiziert zur Behandlung von erwachsenen Patienten mit mittelschwerer bis schwerer, chronischer Plaque-Psoriasis, bei denen eine systemische Therapie oder eine PUVA-Therapie angezeigt ist.\n\nPsoriasis bei Kindern und Jugendlichen (ab 30 kg Körpergewicht)\nAbrilada ist indiziert zur Behandlung der schweren chronischen Plaque-Psoriasis bei Kindern und Jugendlichen mit einem Körpergewicht ≥30 kg, die nur unzureichend auf Phototherapien oder systemische Vortherapien angesprochen haben oder für die diese Therapien nicht geeignet sind.\n\nHidradenitis suppurativa (Acne inversa)\nAbrilada ist indiziert zur Behandlung von erwachsenen Patienten mit aktiver mittelschwerer bis schwerer Hidradenitis suppurativa (Acne inversa), die unzureichend auf eine systemische Antibiotikatherapie angesprochen haben.\n\nUveitis\nAbrilada ist indiziert zur Induktion (in Kombination mit Kortikosteroiden) und Erhaltung einer Remission bei erwachsenen Patienten mit Kortikosteroid-abhängiger nicht-infektiöser intermediärer Uveitis, posteriorer Uveitis oder Panuveitis, die nur unzureichend auf Kortikosteroide mit oder ohne Immunmodulatoren angesprochen haben oder die eine Kortikoid sparende Behandlung benötigen. Die Kombination mit Kortikosteroiden und/oder Immunmodulatoren richtet sich nach dem anatomischen und funktionellen Verlauf.; legalStatusOfSupply = Medicinal product subject to medical or veterinary prescription (B); additionalMonitoringIndicator = No Warning; pediatricUseIndicator = Authorised for the treatment in children; classification = adalimumab,Extension for biosimilar,Biologics,Originator product,07. STOFFWECHSEL</a></p><blockquote><p><b>indication</b></p><h3>DiseaseSymptomProcedures</h3><table class=\"grid\"><tr><td style=\"display: none\">-</td><td><b>Concept</b></td></tr><tr><td style=\"display: none\">*</td><td><span title=\"Codes:{https://www.meddra.org 10037160}\">Psoriatic Arthritis</span></td></tr></table><h3>IntendedEffects</h3><table class=\"grid\"><tr><td style=\"display: none\">-</td><td><b>Concept</b></td></tr><tr><td style=\"display: none\">*</td><td><span title=\"Codes:{http://spor.ema.europa.eu/v1/lists/200000003186 200000003194}\">therapeutic</span></td></tr></table></blockquote></div>"
      },
      "type" : "indication",
      "subject" : [{
        "reference" : "MedicinalProductDefinition/Abrilada-40mg-Pre-Filled-Pen"
      }],
      "indication" : {
        "diseaseSymptomProcedure" : {
          "concept" : {
            "coding" : [{
              "system" : "https://www.meddra.org",
              "code" : "10037160",
              "display" : "Psoriatic Arthritis"
            }]
          }
        },
        "intendedEffect" : {
          "concept" : {
            "coding" : [{
              "system" : "http://spor.ema.europa.eu/v1/lists/200000003186",
              "code" : "200000003194",
              "display" : "therapeutic"
            }]
          }
        }
      }
    }
  },
  {
    "fullUrl" : "http://fhir.epl.bag.admin.ch/CHIDMPClinicalUseDefinition/IND-10002556",
    "resource" : {
      "resourceType" : "ClinicalUseDefinition",
      "id" : "IND-10002556",
      "meta" : {
        "profile" : ["http://fhir.ch/ig/ch-epl/StructureDefinition/ch-idmp-clinicalusedefinition-indication"]
      },
      "text" : {
        "status" : "generated",
        "div" : "<div xmlns=\"http://www.w3.org/1999/xhtml\"><a name=\"ClinicalUseDefinition_IND-10002556\"> </a><p class=\"res-header-id\"><b>Generated Narrative: ClinicalUseDefinition IND-10002556</b></p><a name=\"IND-10002556\"> </a><a name=\"hcIND-10002556\"> </a><div style=\"display: inline-block; background-color: #d9e0e7; padding: 6px; margin: 4px; border: 1px solid #8da1b4; border-radius: 5px; line-height: 60%\"><p style=\"margin-bottom: 0px\"/><p style=\"margin-bottom: 0px\">Profile: <a href=\"StructureDefinition-ch-idmp-clinicalusedefinition-indication.html\">CH IDMP ClinicalUseDefinition Indication</a></p></div><p><b>type</b>: Indication</p><p><b>subject</b>: <a href=\"MedicinalProductDefinition-Abrilada-40mg-Pre-Filled-Pen.html\">MedicinalProductDefinition: extension = Solution for injection,Austausch Referenzpräparat/Biosimilar\nDie Behandlung mit ABRILADA bedarf der Kostengutsprache durch den Krankenversicherer nach vorgängiger Konsultation des Vertrauensarztes. Für die Behandlung mit ABRILADA ist keine neue Kostengutsprache nötig, wenn in derselben Indikation bereits eine Kostengutsprache für das Referenzpräparat oder ein anderes Biosimilar besteht.\n\nAktive rheumatoide Arthritis\nBehandlung mit ABRILADA, wenn die vorausgegangene antirheumatische Standardtherapie mit krankheitsmodifizierenden Antirheumatika (DMARDs) unzulänglich war.\n\nAktive polyartikuläre juvenile idiopathische Arthritis bei Kindern und Jugendlichen ab einem Körpergewicht von ≥ 30 kg\nBehandlung mit ABRILADA, wenn die vorausgegangene Standardtherapie mit krankheitsmodifizierenden Antirheumatika (DMARDs) unzulänglich war.\n\nPsoriasis-Arthritis\nBehandlung mit ABRILADA, wenn die vorausgegangene Standardtherapie mit krankheitsmodifizierenden Antirheumatika (DMARDs) unzulänglich war.\n\nAnkylosierende Spondylitis (Morbus Bechterew)\nBehandlung mit ABRILADA, wenn die vorausgegangene konventionelle Therapie unzulänglich war oder nicht vertragen wurde.\n\nAktiver Morbus Crohn\nBehandlung erwachsener Patienten mit ABRILADA, wenn die vorausgegangene konventionelle Therapie (z.B. mit Azathioprin, 6-Mercaptopurin oder Glukokortikoiden) unzulänglich war, sowie bei Patienten, die nicht mehr auf Infliximab ansprechen oder dieses nicht vertragen. Nach zwei Jahren ununterbrochener Therapie bedarf die Behandlung einer erneuten Kostengutsprache durch den Krankenversicherer nach vorgängiger Konsultation des Vertrauensarztes.\n\nModerate bis schwere Colitis ulcerosa\nBehandlung erwachsener Patienten mit ABRILADA, wenn die vorausgegangene konventionelle Therapie (z.B. mit Azathioprin, 6-Mercaptopurin oder Glukokortikoiden) unzulänglich war oder nicht vertragen wurde.\n\nDie Verschreibung von ABRILADA für die folgenden Behandlungen kann nur durch Fachärzte der Dermatologie oder dermatologische Universitätskliniken/ Polikliniken erfolgen:\n\nSchwere Plaque-Psoriasis\nBehandlung erwachsener Patienten mit schwerer Plaque-Psoriasis, bei denen eine Phototherapie oder eine der folgenden konventionellen systemischen Therapien (Ciclosporin, Methotrexat, Acitretin) keinen therapeutischen Erfolg gezeigt haben. Falls nach 16 Wochen kein therapeutischer Erfolg eingetreten ist, ist die Behandlung abzubrechen.\n\nAktive, mittelschwere bis schwere Hidradenitis suppurativa (Acne inversa)\nBehandlung erwachsener Patienten, wenn die vorausgegangene systemische Therapie mit Antibiotika unzulänglich war. Bei Patienten, die nach 12 Wochen kein Ansprechen nach HiSCR von mindestens 50% zeigen, ist die Behandlung abzubrechen. Nach 52 Wochen ununterbrochener Therapie bedarf die Behandlung einer erneuten Kostengutsprache durch den Krankenversicherer nach vorgängiger Konsultation des Vertrauensarztes.; identifier = http://fhir.ch/ig/ch-epl/sid/mpid#Medical Product Identifier#CH-7601001010604-6783101; indication = Rheumatoide Arthritis\nAbrilada ist indiziert zur Reduzierung der Anzeichen und Symptome sowie zur Verlangsamung der Progression struktureller Schäden und zur Verbesserung der körperlichen Funktionsfähigkeit bei erwachsenen Patienten mit einer mässig bis stark ausgeprägten aktiven rheumatoiden Arthritis, die nur unzureichend auf krankheitsmodifizierende Antirheumatika (DMARDs) angesprochen haben.\nAbrilada kann als Monotherapie oder in Kombination mit Methotrexat bzw. anderen krankheitsmodifizierenden Antirheumatika eingesetzt werden, wobei aber die Kombination von Adalimumab mit Ciclosporin, Azathioprin und anderen anti-TNF-α-Therapien nicht untersucht worden ist.\nBei Patienten, bei denen eine mässig bis stark ausgeprägte rheumatoide Arthritis erst kürzlich (&lt;3 Jahre) diagnostiziert wurde und die zuvor nicht mit Methotrexat behandelt worden war, konnte eine Wirksamkeit von Adalimumab in Kombination mit Methotrexat gezeigt werden.\n\nPolyartikuläre juvenile idiopathische Arthritis (ab 30 kg Körpergewicht)\nAbrilada ist in Kombination mit Methotrexat indiziert zur Behandlung der aktiven polyartikulären juvenilen idiopathischen Arthritis bei Kindern und Jugendlichen ab 30 kg Körpergewicht, die nur unzureichend auf ein oder mehrere krankheitsmodifizierende Antirheumatika (DMARDs), einschliesslich Methotrexat, angesprochen haben oder eine solche Therapie nicht tolerieren. Abrilada kann im Falle einer Unverträglichkeit gegenüber Methotrexat oder, wenn die weitere Behandlung mit Methotrexat nicht möglich ist, als Monotherapie angewendet werden. Bei Kindern, die jünger als 4 Jahre sind, wurde Adalimumab nicht untersucht.\n\nPsoriasis-Arthritis\nAbrilada ist indiziert zur Reduzierung der Anzeichen und Symptome der Psoriasis-Arthritis bei Patienten mit ungenügendem Ansprechen auf krankheitsmodifizierende Antirheumatika. Abrilada reduziert die Progressionsrate struktureller Schäden und verbessert die körperliche Funktionsfähigkeit bei Patienten mit der polyartikulären, symmetrischen Form der Erkrankung. Abrilada kann als Monotherapie oder in Kombination mit krankheitsmodifizierenden Antirheumatika angewendet werden.\n\nAnkylosierende Spondylitis (Morbus Bechterew)\nAbrilada ist indiziert zur Behandlung von erwachsenen Patienten mit aktiver ankylosierender Spondylitis, die nur unzureichend auf herkömmliche Therapien angesprochen haben.\n\nMorbus Crohn\nAbrilada ist indiziert zur Behandlung von erwachsenen Patienten mit einem Morbus Crohn mit mässiger bis hoher Krankheitsaktivität, die nur unzureichend auf herkömmliche Therapien angesprochen haben, sowie bei erwachsenen Patienten, die nicht mehr auf Infliximab ansprechen oder dieses nicht vertragen.\n\nColitis ulcerosa\nAbrilada ist indiziert zur Behandlung der mittelschweren bis schweren aktiven Colitis ulcerosa bei erwachsenen Patienten, die auf die herkömmliche Therapie, einschliesslich Glukokortikoide und/oder 6-Mercaptopurin (6-MP) oder Azathioprin (AZA), unzureichend angesprochen haben oder die eine Unverträglichkeit gegen eine solche Therapie haben oder bei denen eine solche Therapie kontraindiziert ist.\n\nPsoriasis\nAbrilada ist als Monotherapie indiziert zur Behandlung von erwachsenen Patienten mit mittelschwerer bis schwerer, chronischer Plaque-Psoriasis, bei denen eine systemische Therapie oder eine PUVA-Therapie angezeigt ist.\n\nPsoriasis bei Kindern und Jugendlichen (ab 30 kg Körpergewicht)\nAbrilada ist indiziert zur Behandlung der schweren chronischen Plaque-Psoriasis bei Kindern und Jugendlichen mit einem Körpergewicht ≥30 kg, die nur unzureichend auf Phototherapien oder systemische Vortherapien angesprochen haben oder für die diese Therapien nicht geeignet sind.\n\nHidradenitis suppurativa (Acne inversa)\nAbrilada ist indiziert zur Behandlung von erwachsenen Patienten mit aktiver mittelschwerer bis schwerer Hidradenitis suppurativa (Acne inversa), die unzureichend auf eine systemische Antibiotikatherapie angesprochen haben.\n\nUveitis\nAbrilada ist indiziert zur Induktion (in Kombination mit Kortikosteroiden) und Erhaltung einer Remission bei erwachsenen Patienten mit Kortikosteroid-abhängiger nicht-infektiöser intermediärer Uveitis, posteriorer Uveitis oder Panuveitis, die nur unzureichend auf Kortikosteroide mit oder ohne Immunmodulatoren angesprochen haben oder die eine Kortikoid sparende Behandlung benötigen. Die Kombination mit Kortikosteroiden und/oder Immunmodulatoren richtet sich nach dem anatomischen und funktionellen Verlauf.; legalStatusOfSupply = Medicinal product subject to medical or veterinary prescription (B); additionalMonitoringIndicator = No Warning; pediatricUseIndicator = Authorised for the treatment in children; classification = adalimumab,Extension for biosimilar,Biologics,Originator product,07. STOFFWECHSEL</a></p><blockquote><p><b>indication</b></p><h3>DiseaseSymptomProcedures</h3><table class=\"grid\"><tr><td style=\"display: none\">-</td><td><b>Concept</b></td></tr><tr><td style=\"display: none\">*</td><td><span title=\"Codes:{https://www.meddra.org 10002556}\">Ankylosing spondylitis</span></td></tr></table><h3>IntendedEffects</h3><table class=\"grid\"><tr><td style=\"display: none\">-</td><td><b>Concept</b></td></tr><tr><td style=\"display: none\">*</td><td><span title=\"Codes:{http://spor.ema.europa.eu/v1/lists/200000003186 200000003194}\">therapeutic</span></td></tr></table></blockquote></div>"
      },
      "type" : "indication",
      "subject" : [{
        "reference" : "MedicinalProductDefinition/Abrilada-40mg-Pre-Filled-Pen"
      }],
      "indication" : {
        "diseaseSymptomProcedure" : {
          "concept" : {
            "coding" : [{
              "system" : "https://www.meddra.org",
              "code" : "10002556",
              "display" : "Ankylosing spondylitis"
            }]
          }
        },
        "intendedEffect" : {
          "concept" : {
            "coding" : [{
              "system" : "http://spor.ema.europa.eu/v1/lists/200000003186",
              "code" : "200000003194",
              "display" : "therapeutic"
            }]
          }
        }
      }
    }
  },
  {
    "fullUrl" : "http://fhir.epl.bag.admin.ch/CHIDMPClinicalUseDefinition/IND-10045365",
    "resource" : {
      "resourceType" : "ClinicalUseDefinition",
      "id" : "IND-10045365",
      "meta" : {
        "profile" : ["http://fhir.ch/ig/ch-epl/StructureDefinition/ch-idmp-clinicalusedefinition-indication"]
      },
      "text" : {
        "status" : "generated",
        "div" : "<div xmlns=\"http://www.w3.org/1999/xhtml\"><a name=\"ClinicalUseDefinition_IND-10045365\"> </a><p class=\"res-header-id\"><b>Generated Narrative: ClinicalUseDefinition IND-10045365</b></p><a name=\"IND-10045365\"> </a><a name=\"hcIND-10045365\"> </a><div style=\"display: inline-block; background-color: #d9e0e7; padding: 6px; margin: 4px; border: 1px solid #8da1b4; border-radius: 5px; line-height: 60%\"><p style=\"margin-bottom: 0px\"/><p style=\"margin-bottom: 0px\">Profile: <a href=\"StructureDefinition-ch-idmp-clinicalusedefinition-indication.html\">CH IDMP ClinicalUseDefinition Indication</a></p></div><p><b>type</b>: Indication</p><p><b>subject</b>: <a href=\"MedicinalProductDefinition-Abrilada-40mg-Pre-Filled-Pen.html\">MedicinalProductDefinition: extension = Solution for injection,Austausch Referenzpräparat/Biosimilar\nDie Behandlung mit ABRILADA bedarf der Kostengutsprache durch den Krankenversicherer nach vorgängiger Konsultation des Vertrauensarztes. Für die Behandlung mit ABRILADA ist keine neue Kostengutsprache nötig, wenn in derselben Indikation bereits eine Kostengutsprache für das Referenzpräparat oder ein anderes Biosimilar besteht.\n\nAktive rheumatoide Arthritis\nBehandlung mit ABRILADA, wenn die vorausgegangene antirheumatische Standardtherapie mit krankheitsmodifizierenden Antirheumatika (DMARDs) unzulänglich war.\n\nAktive polyartikuläre juvenile idiopathische Arthritis bei Kindern und Jugendlichen ab einem Körpergewicht von ≥ 30 kg\nBehandlung mit ABRILADA, wenn die vorausgegangene Standardtherapie mit krankheitsmodifizierenden Antirheumatika (DMARDs) unzulänglich war.\n\nPsoriasis-Arthritis\nBehandlung mit ABRILADA, wenn die vorausgegangene Standardtherapie mit krankheitsmodifizierenden Antirheumatika (DMARDs) unzulänglich war.\n\nAnkylosierende Spondylitis (Morbus Bechterew)\nBehandlung mit ABRILADA, wenn die vorausgegangene konventionelle Therapie unzulänglich war oder nicht vertragen wurde.\n\nAktiver Morbus Crohn\nBehandlung erwachsener Patienten mit ABRILADA, wenn die vorausgegangene konventionelle Therapie (z.B. mit Azathioprin, 6-Mercaptopurin oder Glukokortikoiden) unzulänglich war, sowie bei Patienten, die nicht mehr auf Infliximab ansprechen oder dieses nicht vertragen. Nach zwei Jahren ununterbrochener Therapie bedarf die Behandlung einer erneuten Kostengutsprache durch den Krankenversicherer nach vorgängiger Konsultation des Vertrauensarztes.\n\nModerate bis schwere Colitis ulcerosa\nBehandlung erwachsener Patienten mit ABRILADA, wenn die vorausgegangene konventionelle Therapie (z.B. mit Azathioprin, 6-Mercaptopurin oder Glukokortikoiden) unzulänglich war oder nicht vertragen wurde.\n\nDie Verschreibung von ABRILADA für die folgenden Behandlungen kann nur durch Fachärzte der Dermatologie oder dermatologische Universitätskliniken/ Polikliniken erfolgen:\n\nSchwere Plaque-Psoriasis\nBehandlung erwachsener Patienten mit schwerer Plaque-Psoriasis, bei denen eine Phototherapie oder eine der folgenden konventionellen systemischen Therapien (Ciclosporin, Methotrexat, Acitretin) keinen therapeutischen Erfolg gezeigt haben. Falls nach 16 Wochen kein therapeutischer Erfolg eingetreten ist, ist die Behandlung abzubrechen.\n\nAktive, mittelschwere bis schwere Hidradenitis suppurativa (Acne inversa)\nBehandlung erwachsener Patienten, wenn die vorausgegangene systemische Therapie mit Antibiotika unzulänglich war. Bei Patienten, die nach 12 Wochen kein Ansprechen nach HiSCR von mindestens 50% zeigen, ist die Behandlung abzubrechen. Nach 52 Wochen ununterbrochener Therapie bedarf die Behandlung einer erneuten Kostengutsprache durch den Krankenversicherer nach vorgängiger Konsultation des Vertrauensarztes.; identifier = http://fhir.ch/ig/ch-epl/sid/mpid#Medical Product Identifier#CH-7601001010604-6783101; indication = Rheumatoide Arthritis\nAbrilada ist indiziert zur Reduzierung der Anzeichen und Symptome sowie zur Verlangsamung der Progression struktureller Schäden und zur Verbesserung der körperlichen Funktionsfähigkeit bei erwachsenen Patienten mit einer mässig bis stark ausgeprägten aktiven rheumatoiden Arthritis, die nur unzureichend auf krankheitsmodifizierende Antirheumatika (DMARDs) angesprochen haben.\nAbrilada kann als Monotherapie oder in Kombination mit Methotrexat bzw. anderen krankheitsmodifizierenden Antirheumatika eingesetzt werden, wobei aber die Kombination von Adalimumab mit Ciclosporin, Azathioprin und anderen anti-TNF-α-Therapien nicht untersucht worden ist.\nBei Patienten, bei denen eine mässig bis stark ausgeprägte rheumatoide Arthritis erst kürzlich (&lt;3 Jahre) diagnostiziert wurde und die zuvor nicht mit Methotrexat behandelt worden war, konnte eine Wirksamkeit von Adalimumab in Kombination mit Methotrexat gezeigt werden.\n\nPolyartikuläre juvenile idiopathische Arthritis (ab 30 kg Körpergewicht)\nAbrilada ist in Kombination mit Methotrexat indiziert zur Behandlung der aktiven polyartikulären juvenilen idiopathischen Arthritis bei Kindern und Jugendlichen ab 30 kg Körpergewicht, die nur unzureichend auf ein oder mehrere krankheitsmodifizierende Antirheumatika (DMARDs), einschliesslich Methotrexat, angesprochen haben oder eine solche Therapie nicht tolerieren. Abrilada kann im Falle einer Unverträglichkeit gegenüber Methotrexat oder, wenn die weitere Behandlung mit Methotrexat nicht möglich ist, als Monotherapie angewendet werden. Bei Kindern, die jünger als 4 Jahre sind, wurde Adalimumab nicht untersucht.\n\nPsoriasis-Arthritis\nAbrilada ist indiziert zur Reduzierung der Anzeichen und Symptome der Psoriasis-Arthritis bei Patienten mit ungenügendem Ansprechen auf krankheitsmodifizierende Antirheumatika. Abrilada reduziert die Progressionsrate struktureller Schäden und verbessert die körperliche Funktionsfähigkeit bei Patienten mit der polyartikulären, symmetrischen Form der Erkrankung. Abrilada kann als Monotherapie oder in Kombination mit krankheitsmodifizierenden Antirheumatika angewendet werden.\n\nAnkylosierende Spondylitis (Morbus Bechterew)\nAbrilada ist indiziert zur Behandlung von erwachsenen Patienten mit aktiver ankylosierender Spondylitis, die nur unzureichend auf herkömmliche Therapien angesprochen haben.\n\nMorbus Crohn\nAbrilada ist indiziert zur Behandlung von erwachsenen Patienten mit einem Morbus Crohn mit mässiger bis hoher Krankheitsaktivität, die nur unzureichend auf herkömmliche Therapien angesprochen haben, sowie bei erwachsenen Patienten, die nicht mehr auf Infliximab ansprechen oder dieses nicht vertragen.\n\nColitis ulcerosa\nAbrilada ist indiziert zur Behandlung der mittelschweren bis schweren aktiven Colitis ulcerosa bei erwachsenen Patienten, die auf die herkömmliche Therapie, einschliesslich Glukokortikoide und/oder 6-Mercaptopurin (6-MP) oder Azathioprin (AZA), unzureichend angesprochen haben oder die eine Unverträglichkeit gegen eine solche Therapie haben oder bei denen eine solche Therapie kontraindiziert ist.\n\nPsoriasis\nAbrilada ist als Monotherapie indiziert zur Behandlung von erwachsenen Patienten mit mittelschwerer bis schwerer, chronischer Plaque-Psoriasis, bei denen eine systemische Therapie oder eine PUVA-Therapie angezeigt ist.\n\nPsoriasis bei Kindern und Jugendlichen (ab 30 kg Körpergewicht)\nAbrilada ist indiziert zur Behandlung der schweren chronischen Plaque-Psoriasis bei Kindern und Jugendlichen mit einem Körpergewicht ≥30 kg, die nur unzureichend auf Phototherapien oder systemische Vortherapien angesprochen haben oder für die diese Therapien nicht geeignet sind.\n\nHidradenitis suppurativa (Acne inversa)\nAbrilada ist indiziert zur Behandlung von erwachsenen Patienten mit aktiver mittelschwerer bis schwerer Hidradenitis suppurativa (Acne inversa), die unzureichend auf eine systemische Antibiotikatherapie angesprochen haben.\n\nUveitis\nAbrilada ist indiziert zur Induktion (in Kombination mit Kortikosteroiden) und Erhaltung einer Remission bei erwachsenen Patienten mit Kortikosteroid-abhängiger nicht-infektiöser intermediärer Uveitis, posteriorer Uveitis oder Panuveitis, die nur unzureichend auf Kortikosteroide mit oder ohne Immunmodulatoren angesprochen haben oder die eine Kortikoid sparende Behandlung benötigen. Die Kombination mit Kortikosteroiden und/oder Immunmodulatoren richtet sich nach dem anatomischen und funktionellen Verlauf.; legalStatusOfSupply = Medicinal product subject to medical or veterinary prescription (B); additionalMonitoringIndicator = No Warning; pediatricUseIndicator = Authorised for the treatment in children; classification = adalimumab,Extension for biosimilar,Biologics,Originator product,07. STOFFWECHSEL</a></p><blockquote><p><b>indication</b></p><h3>DiseaseSymptomProcedures</h3><table class=\"grid\"><tr><td style=\"display: none\">-</td><td><b>Concept</b></td></tr><tr><td style=\"display: none\">*</td><td><span title=\"Codes:{https://www.meddra.org 10045365}\">Ulcerative colitis</span></td></tr></table><h3>IntendedEffects</h3><table class=\"grid\"><tr><td style=\"display: none\">-</td><td><b>Concept</b></td></tr><tr><td style=\"display: none\">*</td><td><span title=\"Codes:{http://spor.ema.europa.eu/v1/lists/200000003186 200000003194}\">therapeutic</span></td></tr></table></blockquote></div>"
      },
      "type" : "indication",
      "subject" : [{
        "reference" : "MedicinalProductDefinition/Abrilada-40mg-Pre-Filled-Pen"
      }],
      "indication" : {
        "diseaseSymptomProcedure" : {
          "concept" : {
            "coding" : [{
              "system" : "https://www.meddra.org",
              "code" : "10045365",
              "display" : "Ulcerative colitis"
            }]
          }
        },
        "intendedEffect" : {
          "concept" : {
            "coding" : [{
              "system" : "http://spor.ema.europa.eu/v1/lists/200000003186",
              "code" : "200000003194",
              "display" : "therapeutic"
            }]
          }
        }
      }
    }
  },
  {
    "fullUrl" : "http://fhir.epl.bag.admin.ch/CHIDMPClinicalUseDefinition/IND-10037153",
    "resource" : {
      "resourceType" : "ClinicalUseDefinition",
      "id" : "IND-10037153",
      "meta" : {
        "profile" : ["http://fhir.ch/ig/ch-epl/StructureDefinition/ch-idmp-clinicalusedefinition-indication"]
      },
      "text" : {
        "status" : "generated",
        "div" : "<div xmlns=\"http://www.w3.org/1999/xhtml\"><a name=\"ClinicalUseDefinition_IND-10037153\"> </a><p class=\"res-header-id\"><b>Generated Narrative: ClinicalUseDefinition IND-10037153</b></p><a name=\"IND-10037153\"> </a><a name=\"hcIND-10037153\"> </a><div style=\"display: inline-block; background-color: #d9e0e7; padding: 6px; margin: 4px; border: 1px solid #8da1b4; border-radius: 5px; line-height: 60%\"><p style=\"margin-bottom: 0px\"/><p style=\"margin-bottom: 0px\">Profile: <a href=\"StructureDefinition-ch-idmp-clinicalusedefinition-indication.html\">CH IDMP ClinicalUseDefinition Indication</a></p></div><p><b>type</b>: Indication</p><p><b>subject</b>: <a href=\"MedicinalProductDefinition-Abrilada-40mg-Pre-Filled-Pen.html\">MedicinalProductDefinition: extension = Solution for injection,Austausch Referenzpräparat/Biosimilar\nDie Behandlung mit ABRILADA bedarf der Kostengutsprache durch den Krankenversicherer nach vorgängiger Konsultation des Vertrauensarztes. Für die Behandlung mit ABRILADA ist keine neue Kostengutsprache nötig, wenn in derselben Indikation bereits eine Kostengutsprache für das Referenzpräparat oder ein anderes Biosimilar besteht.\n\nAktive rheumatoide Arthritis\nBehandlung mit ABRILADA, wenn die vorausgegangene antirheumatische Standardtherapie mit krankheitsmodifizierenden Antirheumatika (DMARDs) unzulänglich war.\n\nAktive polyartikuläre juvenile idiopathische Arthritis bei Kindern und Jugendlichen ab einem Körpergewicht von ≥ 30 kg\nBehandlung mit ABRILADA, wenn die vorausgegangene Standardtherapie mit krankheitsmodifizierenden Antirheumatika (DMARDs) unzulänglich war.\n\nPsoriasis-Arthritis\nBehandlung mit ABRILADA, wenn die vorausgegangene Standardtherapie mit krankheitsmodifizierenden Antirheumatika (DMARDs) unzulänglich war.\n\nAnkylosierende Spondylitis (Morbus Bechterew)\nBehandlung mit ABRILADA, wenn die vorausgegangene konventionelle Therapie unzulänglich war oder nicht vertragen wurde.\n\nAktiver Morbus Crohn\nBehandlung erwachsener Patienten mit ABRILADA, wenn die vorausgegangene konventionelle Therapie (z.B. mit Azathioprin, 6-Mercaptopurin oder Glukokortikoiden) unzulänglich war, sowie bei Patienten, die nicht mehr auf Infliximab ansprechen oder dieses nicht vertragen. Nach zwei Jahren ununterbrochener Therapie bedarf die Behandlung einer erneuten Kostengutsprache durch den Krankenversicherer nach vorgängiger Konsultation des Vertrauensarztes.\n\nModerate bis schwere Colitis ulcerosa\nBehandlung erwachsener Patienten mit ABRILADA, wenn die vorausgegangene konventionelle Therapie (z.B. mit Azathioprin, 6-Mercaptopurin oder Glukokortikoiden) unzulänglich war oder nicht vertragen wurde.\n\nDie Verschreibung von ABRILADA für die folgenden Behandlungen kann nur durch Fachärzte der Dermatologie oder dermatologische Universitätskliniken/ Polikliniken erfolgen:\n\nSchwere Plaque-Psoriasis\nBehandlung erwachsener Patienten mit schwerer Plaque-Psoriasis, bei denen eine Phototherapie oder eine der folgenden konventionellen systemischen Therapien (Ciclosporin, Methotrexat, Acitretin) keinen therapeutischen Erfolg gezeigt haben. Falls nach 16 Wochen kein therapeutischer Erfolg eingetreten ist, ist die Behandlung abzubrechen.\n\nAktive, mittelschwere bis schwere Hidradenitis suppurativa (Acne inversa)\nBehandlung erwachsener Patienten, wenn die vorausgegangene systemische Therapie mit Antibiotika unzulänglich war. Bei Patienten, die nach 12 Wochen kein Ansprechen nach HiSCR von mindestens 50% zeigen, ist die Behandlung abzubrechen. Nach 52 Wochen ununterbrochener Therapie bedarf die Behandlung einer erneuten Kostengutsprache durch den Krankenversicherer nach vorgängiger Konsultation des Vertrauensarztes.; identifier = http://fhir.ch/ig/ch-epl/sid/mpid#Medical Product Identifier#CH-7601001010604-6783101; indication = Rheumatoide Arthritis\nAbrilada ist indiziert zur Reduzierung der Anzeichen und Symptome sowie zur Verlangsamung der Progression struktureller Schäden und zur Verbesserung der körperlichen Funktionsfähigkeit bei erwachsenen Patienten mit einer mässig bis stark ausgeprägten aktiven rheumatoiden Arthritis, die nur unzureichend auf krankheitsmodifizierende Antirheumatika (DMARDs) angesprochen haben.\nAbrilada kann als Monotherapie oder in Kombination mit Methotrexat bzw. anderen krankheitsmodifizierenden Antirheumatika eingesetzt werden, wobei aber die Kombination von Adalimumab mit Ciclosporin, Azathioprin und anderen anti-TNF-α-Therapien nicht untersucht worden ist.\nBei Patienten, bei denen eine mässig bis stark ausgeprägte rheumatoide Arthritis erst kürzlich (&lt;3 Jahre) diagnostiziert wurde und die zuvor nicht mit Methotrexat behandelt worden war, konnte eine Wirksamkeit von Adalimumab in Kombination mit Methotrexat gezeigt werden.\n\nPolyartikuläre juvenile idiopathische Arthritis (ab 30 kg Körpergewicht)\nAbrilada ist in Kombination mit Methotrexat indiziert zur Behandlung der aktiven polyartikulären juvenilen idiopathischen Arthritis bei Kindern und Jugendlichen ab 30 kg Körpergewicht, die nur unzureichend auf ein oder mehrere krankheitsmodifizierende Antirheumatika (DMARDs), einschliesslich Methotrexat, angesprochen haben oder eine solche Therapie nicht tolerieren. Abrilada kann im Falle einer Unverträglichkeit gegenüber Methotrexat oder, wenn die weitere Behandlung mit Methotrexat nicht möglich ist, als Monotherapie angewendet werden. Bei Kindern, die jünger als 4 Jahre sind, wurde Adalimumab nicht untersucht.\n\nPsoriasis-Arthritis\nAbrilada ist indiziert zur Reduzierung der Anzeichen und Symptome der Psoriasis-Arthritis bei Patienten mit ungenügendem Ansprechen auf krankheitsmodifizierende Antirheumatika. Abrilada reduziert die Progressionsrate struktureller Schäden und verbessert die körperliche Funktionsfähigkeit bei Patienten mit der polyartikulären, symmetrischen Form der Erkrankung. Abrilada kann als Monotherapie oder in Kombination mit krankheitsmodifizierenden Antirheumatika angewendet werden.\n\nAnkylosierende Spondylitis (Morbus Bechterew)\nAbrilada ist indiziert zur Behandlung von erwachsenen Patienten mit aktiver ankylosierender Spondylitis, die nur unzureichend auf herkömmliche Therapien angesprochen haben.\n\nMorbus Crohn\nAbrilada ist indiziert zur Behandlung von erwachsenen Patienten mit einem Morbus Crohn mit mässiger bis hoher Krankheitsaktivität, die nur unzureichend auf herkömmliche Therapien angesprochen haben, sowie bei erwachsenen Patienten, die nicht mehr auf Infliximab ansprechen oder dieses nicht vertragen.\n\nColitis ulcerosa\nAbrilada ist indiziert zur Behandlung der mittelschweren bis schweren aktiven Colitis ulcerosa bei erwachsenen Patienten, die auf die herkömmliche Therapie, einschliesslich Glukokortikoide und/oder 6-Mercaptopurin (6-MP) oder Azathioprin (AZA), unzureichend angesprochen haben oder die eine Unverträglichkeit gegen eine solche Therapie haben oder bei denen eine solche Therapie kontraindiziert ist.\n\nPsoriasis\nAbrilada ist als Monotherapie indiziert zur Behandlung von erwachsenen Patienten mit mittelschwerer bis schwerer, chronischer Plaque-Psoriasis, bei denen eine systemische Therapie oder eine PUVA-Therapie angezeigt ist.\n\nPsoriasis bei Kindern und Jugendlichen (ab 30 kg Körpergewicht)\nAbrilada ist indiziert zur Behandlung der schweren chronischen Plaque-Psoriasis bei Kindern und Jugendlichen mit einem Körpergewicht ≥30 kg, die nur unzureichend auf Phototherapien oder systemische Vortherapien angesprochen haben oder für die diese Therapien nicht geeignet sind.\n\nHidradenitis suppurativa (Acne inversa)\nAbrilada ist indiziert zur Behandlung von erwachsenen Patienten mit aktiver mittelschwerer bis schwerer Hidradenitis suppurativa (Acne inversa), die unzureichend auf eine systemische Antibiotikatherapie angesprochen haben.\n\nUveitis\nAbrilada ist indiziert zur Induktion (in Kombination mit Kortikosteroiden) und Erhaltung einer Remission bei erwachsenen Patienten mit Kortikosteroid-abhängiger nicht-infektiöser intermediärer Uveitis, posteriorer Uveitis oder Panuveitis, die nur unzureichend auf Kortikosteroide mit oder ohne Immunmodulatoren angesprochen haben oder die eine Kortikoid sparende Behandlung benötigen. Die Kombination mit Kortikosteroiden und/oder Immunmodulatoren richtet sich nach dem anatomischen und funktionellen Verlauf.; legalStatusOfSupply = Medicinal product subject to medical or veterinary prescription (B); additionalMonitoringIndicator = No Warning; pediatricUseIndicator = Authorised for the treatment in children; classification = adalimumab,Extension for biosimilar,Biologics,Originator product,07. STOFFWECHSEL</a></p><blockquote><p><b>indication</b></p><h3>DiseaseSymptomProcedures</h3><table class=\"grid\"><tr><td style=\"display: none\">-</td><td><b>Concept</b></td></tr><tr><td style=\"display: none\">*</td><td><span title=\"Codes:{https://www.meddra.org 10037153}\">Psoriasis</span></td></tr></table><h3>IntendedEffects</h3><table class=\"grid\"><tr><td style=\"display: none\">-</td><td><b>Concept</b></td></tr><tr><td style=\"display: none\">*</td><td><span title=\"Codes:{http://spor.ema.europa.eu/v1/lists/200000003186 200000003194}\">therapeutic</span></td></tr></table></blockquote></div>"
      },
      "type" : "indication",
      "subject" : [{
        "reference" : "MedicinalProductDefinition/Abrilada-40mg-Pre-Filled-Pen"
      }],
      "indication" : {
        "diseaseSymptomProcedure" : {
          "concept" : {
            "coding" : [{
              "system" : "https://www.meddra.org",
              "code" : "10037153",
              "display" : "Psoriasis"
            }]
          }
        },
        "intendedEffect" : {
          "concept" : {
            "coding" : [{
              "system" : "http://spor.ema.europa.eu/v1/lists/200000003186",
              "code" : "200000003194",
              "display" : "therapeutic"
            }]
          }
        }
      }
    }
  },
  {
    "fullUrl" : "http://fhir.epl.bag.admin.ch/CHIDMPClinicalUseDefinition/IND-10020041",
    "resource" : {
      "resourceType" : "ClinicalUseDefinition",
      "id" : "IND-10020041",
      "meta" : {
        "profile" : ["http://fhir.ch/ig/ch-epl/StructureDefinition/ch-idmp-clinicalusedefinition-indication"]
      },
      "text" : {
        "status" : "generated",
        "div" : "<div xmlns=\"http://www.w3.org/1999/xhtml\"><a name=\"ClinicalUseDefinition_IND-10020041\"> </a><p class=\"res-header-id\"><b>Generated Narrative: ClinicalUseDefinition IND-10020041</b></p><a name=\"IND-10020041\"> </a><a name=\"hcIND-10020041\"> </a><div style=\"display: inline-block; background-color: #d9e0e7; padding: 6px; margin: 4px; border: 1px solid #8da1b4; border-radius: 5px; line-height: 60%\"><p style=\"margin-bottom: 0px\"/><p style=\"margin-bottom: 0px\">Profile: <a href=\"StructureDefinition-ch-idmp-clinicalusedefinition-indication.html\">CH IDMP ClinicalUseDefinition Indication</a></p></div><p><b>type</b>: Indication</p><p><b>subject</b>: <a href=\"MedicinalProductDefinition-Abrilada-40mg-Pre-Filled-Pen.html\">MedicinalProductDefinition: extension = Solution for injection,Austausch Referenzpräparat/Biosimilar\nDie Behandlung mit ABRILADA bedarf der Kostengutsprache durch den Krankenversicherer nach vorgängiger Konsultation des Vertrauensarztes. Für die Behandlung mit ABRILADA ist keine neue Kostengutsprache nötig, wenn in derselben Indikation bereits eine Kostengutsprache für das Referenzpräparat oder ein anderes Biosimilar besteht.\n\nAktive rheumatoide Arthritis\nBehandlung mit ABRILADA, wenn die vorausgegangene antirheumatische Standardtherapie mit krankheitsmodifizierenden Antirheumatika (DMARDs) unzulänglich war.\n\nAktive polyartikuläre juvenile idiopathische Arthritis bei Kindern und Jugendlichen ab einem Körpergewicht von ≥ 30 kg\nBehandlung mit ABRILADA, wenn die vorausgegangene Standardtherapie mit krankheitsmodifizierenden Antirheumatika (DMARDs) unzulänglich war.\n\nPsoriasis-Arthritis\nBehandlung mit ABRILADA, wenn die vorausgegangene Standardtherapie mit krankheitsmodifizierenden Antirheumatika (DMARDs) unzulänglich war.\n\nAnkylosierende Spondylitis (Morbus Bechterew)\nBehandlung mit ABRILADA, wenn die vorausgegangene konventionelle Therapie unzulänglich war oder nicht vertragen wurde.\n\nAktiver Morbus Crohn\nBehandlung erwachsener Patienten mit ABRILADA, wenn die vorausgegangene konventionelle Therapie (z.B. mit Azathioprin, 6-Mercaptopurin oder Glukokortikoiden) unzulänglich war, sowie bei Patienten, die nicht mehr auf Infliximab ansprechen oder dieses nicht vertragen. Nach zwei Jahren ununterbrochener Therapie bedarf die Behandlung einer erneuten Kostengutsprache durch den Krankenversicherer nach vorgängiger Konsultation des Vertrauensarztes.\n\nModerate bis schwere Colitis ulcerosa\nBehandlung erwachsener Patienten mit ABRILADA, wenn die vorausgegangene konventionelle Therapie (z.B. mit Azathioprin, 6-Mercaptopurin oder Glukokortikoiden) unzulänglich war oder nicht vertragen wurde.\n\nDie Verschreibung von ABRILADA für die folgenden Behandlungen kann nur durch Fachärzte der Dermatologie oder dermatologische Universitätskliniken/ Polikliniken erfolgen:\n\nSchwere Plaque-Psoriasis\nBehandlung erwachsener Patienten mit schwerer Plaque-Psoriasis, bei denen eine Phototherapie oder eine der folgenden konventionellen systemischen Therapien (Ciclosporin, Methotrexat, Acitretin) keinen therapeutischen Erfolg gezeigt haben. Falls nach 16 Wochen kein therapeutischer Erfolg eingetreten ist, ist die Behandlung abzubrechen.\n\nAktive, mittelschwere bis schwere Hidradenitis suppurativa (Acne inversa)\nBehandlung erwachsener Patienten, wenn die vorausgegangene systemische Therapie mit Antibiotika unzulänglich war. Bei Patienten, die nach 12 Wochen kein Ansprechen nach HiSCR von mindestens 50% zeigen, ist die Behandlung abzubrechen. Nach 52 Wochen ununterbrochener Therapie bedarf die Behandlung einer erneuten Kostengutsprache durch den Krankenversicherer nach vorgängiger Konsultation des Vertrauensarztes.; identifier = http://fhir.ch/ig/ch-epl/sid/mpid#Medical Product Identifier#CH-7601001010604-6783101; indication = Rheumatoide Arthritis\nAbrilada ist indiziert zur Reduzierung der Anzeichen und Symptome sowie zur Verlangsamung der Progression struktureller Schäden und zur Verbesserung der körperlichen Funktionsfähigkeit bei erwachsenen Patienten mit einer mässig bis stark ausgeprägten aktiven rheumatoiden Arthritis, die nur unzureichend auf krankheitsmodifizierende Antirheumatika (DMARDs) angesprochen haben.\nAbrilada kann als Monotherapie oder in Kombination mit Methotrexat bzw. anderen krankheitsmodifizierenden Antirheumatika eingesetzt werden, wobei aber die Kombination von Adalimumab mit Ciclosporin, Azathioprin und anderen anti-TNF-α-Therapien nicht untersucht worden ist.\nBei Patienten, bei denen eine mässig bis stark ausgeprägte rheumatoide Arthritis erst kürzlich (&lt;3 Jahre) diagnostiziert wurde und die zuvor nicht mit Methotrexat behandelt worden war, konnte eine Wirksamkeit von Adalimumab in Kombination mit Methotrexat gezeigt werden.\n\nPolyartikuläre juvenile idiopathische Arthritis (ab 30 kg Körpergewicht)\nAbrilada ist in Kombination mit Methotrexat indiziert zur Behandlung der aktiven polyartikulären juvenilen idiopathischen Arthritis bei Kindern und Jugendlichen ab 30 kg Körpergewicht, die nur unzureichend auf ein oder mehrere krankheitsmodifizierende Antirheumatika (DMARDs), einschliesslich Methotrexat, angesprochen haben oder eine solche Therapie nicht tolerieren. Abrilada kann im Falle einer Unverträglichkeit gegenüber Methotrexat oder, wenn die weitere Behandlung mit Methotrexat nicht möglich ist, als Monotherapie angewendet werden. Bei Kindern, die jünger als 4 Jahre sind, wurde Adalimumab nicht untersucht.\n\nPsoriasis-Arthritis\nAbrilada ist indiziert zur Reduzierung der Anzeichen und Symptome der Psoriasis-Arthritis bei Patienten mit ungenügendem Ansprechen auf krankheitsmodifizierende Antirheumatika. Abrilada reduziert die Progressionsrate struktureller Schäden und verbessert die körperliche Funktionsfähigkeit bei Patienten mit der polyartikulären, symmetrischen Form der Erkrankung. Abrilada kann als Monotherapie oder in Kombination mit krankheitsmodifizierenden Antirheumatika angewendet werden.\n\nAnkylosierende Spondylitis (Morbus Bechterew)\nAbrilada ist indiziert zur Behandlung von erwachsenen Patienten mit aktiver ankylosierender Spondylitis, die nur unzureichend auf herkömmliche Therapien angesprochen haben.\n\nMorbus Crohn\nAbrilada ist indiziert zur Behandlung von erwachsenen Patienten mit einem Morbus Crohn mit mässiger bis hoher Krankheitsaktivität, die nur unzureichend auf herkömmliche Therapien angesprochen haben, sowie bei erwachsenen Patienten, die nicht mehr auf Infliximab ansprechen oder dieses nicht vertragen.\n\nColitis ulcerosa\nAbrilada ist indiziert zur Behandlung der mittelschweren bis schweren aktiven Colitis ulcerosa bei erwachsenen Patienten, die auf die herkömmliche Therapie, einschliesslich Glukokortikoide und/oder 6-Mercaptopurin (6-MP) oder Azathioprin (AZA), unzureichend angesprochen haben oder die eine Unverträglichkeit gegen eine solche Therapie haben oder bei denen eine solche Therapie kontraindiziert ist.\n\nPsoriasis\nAbrilada ist als Monotherapie indiziert zur Behandlung von erwachsenen Patienten mit mittelschwerer bis schwerer, chronischer Plaque-Psoriasis, bei denen eine systemische Therapie oder eine PUVA-Therapie angezeigt ist.\n\nPsoriasis bei Kindern und Jugendlichen (ab 30 kg Körpergewicht)\nAbrilada ist indiziert zur Behandlung der schweren chronischen Plaque-Psoriasis bei Kindern und Jugendlichen mit einem Körpergewicht ≥30 kg, die nur unzureichend auf Phototherapien oder systemische Vortherapien angesprochen haben oder für die diese Therapien nicht geeignet sind.\n\nHidradenitis suppurativa (Acne inversa)\nAbrilada ist indiziert zur Behandlung von erwachsenen Patienten mit aktiver mittelschwerer bis schwerer Hidradenitis suppurativa (Acne inversa), die unzureichend auf eine systemische Antibiotikatherapie angesprochen haben.\n\nUveitis\nAbrilada ist indiziert zur Induktion (in Kombination mit Kortikosteroiden) und Erhaltung einer Remission bei erwachsenen Patienten mit Kortikosteroid-abhängiger nicht-infektiöser intermediärer Uveitis, posteriorer Uveitis oder Panuveitis, die nur unzureichend auf Kortikosteroide mit oder ohne Immunmodulatoren angesprochen haben oder die eine Kortikoid sparende Behandlung benötigen. Die Kombination mit Kortikosteroiden und/oder Immunmodulatoren richtet sich nach dem anatomischen und funktionellen Verlauf.; legalStatusOfSupply = Medicinal product subject to medical or veterinary prescription (B); additionalMonitoringIndicator = No Warning; pediatricUseIndicator = Authorised for the treatment in children; classification = adalimumab,Extension for biosimilar,Biologics,Originator product,07. STOFFWECHSEL</a></p><blockquote><p><b>indication</b></p><h3>DiseaseSymptomProcedures</h3><table class=\"grid\"><tr><td style=\"display: none\">-</td><td><b>Concept</b></td></tr><tr><td style=\"display: none\">*</td><td><span title=\"Codes:{https://www.meddra.org 10020041}\">Hidradenitis suppurativa</span></td></tr></table><h3>IntendedEffects</h3><table class=\"grid\"><tr><td style=\"display: none\">-</td><td><b>Concept</b></td></tr><tr><td style=\"display: none\">*</td><td><span title=\"Codes:{http://spor.ema.europa.eu/v1/lists/200000003186 200000003194}\">therapeutic</span></td></tr></table></blockquote></div>"
      },
      "type" : "indication",
      "subject" : [{
        "reference" : "MedicinalProductDefinition/Abrilada-40mg-Pre-Filled-Pen"
      }],
      "indication" : {
        "diseaseSymptomProcedure" : {
          "concept" : {
            "coding" : [{
              "system" : "https://www.meddra.org",
              "code" : "10020041",
              "display" : "Hidradenitis suppurativa"
            }]
          }
        },
        "intendedEffect" : {
          "concept" : {
            "coding" : [{
              "system" : "http://spor.ema.europa.eu/v1/lists/200000003186",
              "code" : "200000003194",
              "display" : "therapeutic"
            }]
          }
        }
      }
    }
  },
  {
    "fullUrl" : "http://fhir.epl.bag.admin.ch/CHIDMPClinicalUseDefinition/IND-10046851",
    "resource" : {
      "resourceType" : "ClinicalUseDefinition",
      "id" : "IND-10046851",
      "meta" : {
        "profile" : ["http://fhir.ch/ig/ch-epl/StructureDefinition/ch-idmp-clinicalusedefinition-indication"]
      },
      "text" : {
        "status" : "generated",
        "div" : "<div xmlns=\"http://www.w3.org/1999/xhtml\"><a name=\"ClinicalUseDefinition_IND-10046851\"> </a><p class=\"res-header-id\"><b>Generated Narrative: ClinicalUseDefinition IND-10046851</b></p><a name=\"IND-10046851\"> </a><a name=\"hcIND-10046851\"> </a><div style=\"display: inline-block; background-color: #d9e0e7; padding: 6px; margin: 4px; border: 1px solid #8da1b4; border-radius: 5px; line-height: 60%\"><p style=\"margin-bottom: 0px\"/><p style=\"margin-bottom: 0px\">Profile: <a href=\"StructureDefinition-ch-idmp-clinicalusedefinition-indication.html\">CH IDMP ClinicalUseDefinition Indication</a></p></div><p><b>type</b>: Indication</p><p><b>subject</b>: <a href=\"MedicinalProductDefinition-Abrilada-40mg-Pre-Filled-Pen.html\">MedicinalProductDefinition: extension = Solution for injection,Austausch Referenzpräparat/Biosimilar\nDie Behandlung mit ABRILADA bedarf der Kostengutsprache durch den Krankenversicherer nach vorgängiger Konsultation des Vertrauensarztes. Für die Behandlung mit ABRILADA ist keine neue Kostengutsprache nötig, wenn in derselben Indikation bereits eine Kostengutsprache für das Referenzpräparat oder ein anderes Biosimilar besteht.\n\nAktive rheumatoide Arthritis\nBehandlung mit ABRILADA, wenn die vorausgegangene antirheumatische Standardtherapie mit krankheitsmodifizierenden Antirheumatika (DMARDs) unzulänglich war.\n\nAktive polyartikuläre juvenile idiopathische Arthritis bei Kindern und Jugendlichen ab einem Körpergewicht von ≥ 30 kg\nBehandlung mit ABRILADA, wenn die vorausgegangene Standardtherapie mit krankheitsmodifizierenden Antirheumatika (DMARDs) unzulänglich war.\n\nPsoriasis-Arthritis\nBehandlung mit ABRILADA, wenn die vorausgegangene Standardtherapie mit krankheitsmodifizierenden Antirheumatika (DMARDs) unzulänglich war.\n\nAnkylosierende Spondylitis (Morbus Bechterew)\nBehandlung mit ABRILADA, wenn die vorausgegangene konventionelle Therapie unzulänglich war oder nicht vertragen wurde.\n\nAktiver Morbus Crohn\nBehandlung erwachsener Patienten mit ABRILADA, wenn die vorausgegangene konventionelle Therapie (z.B. mit Azathioprin, 6-Mercaptopurin oder Glukokortikoiden) unzulänglich war, sowie bei Patienten, die nicht mehr auf Infliximab ansprechen oder dieses nicht vertragen. Nach zwei Jahren ununterbrochener Therapie bedarf die Behandlung einer erneuten Kostengutsprache durch den Krankenversicherer nach vorgängiger Konsultation des Vertrauensarztes.\n\nModerate bis schwere Colitis ulcerosa\nBehandlung erwachsener Patienten mit ABRILADA, wenn die vorausgegangene konventionelle Therapie (z.B. mit Azathioprin, 6-Mercaptopurin oder Glukokortikoiden) unzulänglich war oder nicht vertragen wurde.\n\nDie Verschreibung von ABRILADA für die folgenden Behandlungen kann nur durch Fachärzte der Dermatologie oder dermatologische Universitätskliniken/ Polikliniken erfolgen:\n\nSchwere Plaque-Psoriasis\nBehandlung erwachsener Patienten mit schwerer Plaque-Psoriasis, bei denen eine Phototherapie oder eine der folgenden konventionellen systemischen Therapien (Ciclosporin, Methotrexat, Acitretin) keinen therapeutischen Erfolg gezeigt haben. Falls nach 16 Wochen kein therapeutischer Erfolg eingetreten ist, ist die Behandlung abzubrechen.\n\nAktive, mittelschwere bis schwere Hidradenitis suppurativa (Acne inversa)\nBehandlung erwachsener Patienten, wenn die vorausgegangene systemische Therapie mit Antibiotika unzulänglich war. Bei Patienten, die nach 12 Wochen kein Ansprechen nach HiSCR von mindestens 50% zeigen, ist die Behandlung abzubrechen. Nach 52 Wochen ununterbrochener Therapie bedarf die Behandlung einer erneuten Kostengutsprache durch den Krankenversicherer nach vorgängiger Konsultation des Vertrauensarztes.; identifier = http://fhir.ch/ig/ch-epl/sid/mpid#Medical Product Identifier#CH-7601001010604-6783101; indication = Rheumatoide Arthritis\nAbrilada ist indiziert zur Reduzierung der Anzeichen und Symptome sowie zur Verlangsamung der Progression struktureller Schäden und zur Verbesserung der körperlichen Funktionsfähigkeit bei erwachsenen Patienten mit einer mässig bis stark ausgeprägten aktiven rheumatoiden Arthritis, die nur unzureichend auf krankheitsmodifizierende Antirheumatika (DMARDs) angesprochen haben.\nAbrilada kann als Monotherapie oder in Kombination mit Methotrexat bzw. anderen krankheitsmodifizierenden Antirheumatika eingesetzt werden, wobei aber die Kombination von Adalimumab mit Ciclosporin, Azathioprin und anderen anti-TNF-α-Therapien nicht untersucht worden ist.\nBei Patienten, bei denen eine mässig bis stark ausgeprägte rheumatoide Arthritis erst kürzlich (&lt;3 Jahre) diagnostiziert wurde und die zuvor nicht mit Methotrexat behandelt worden war, konnte eine Wirksamkeit von Adalimumab in Kombination mit Methotrexat gezeigt werden.\n\nPolyartikuläre juvenile idiopathische Arthritis (ab 30 kg Körpergewicht)\nAbrilada ist in Kombination mit Methotrexat indiziert zur Behandlung der aktiven polyartikulären juvenilen idiopathischen Arthritis bei Kindern und Jugendlichen ab 30 kg Körpergewicht, die nur unzureichend auf ein oder mehrere krankheitsmodifizierende Antirheumatika (DMARDs), einschliesslich Methotrexat, angesprochen haben oder eine solche Therapie nicht tolerieren. Abrilada kann im Falle einer Unverträglichkeit gegenüber Methotrexat oder, wenn die weitere Behandlung mit Methotrexat nicht möglich ist, als Monotherapie angewendet werden. Bei Kindern, die jünger als 4 Jahre sind, wurde Adalimumab nicht untersucht.\n\nPsoriasis-Arthritis\nAbrilada ist indiziert zur Reduzierung der Anzeichen und Symptome der Psoriasis-Arthritis bei Patienten mit ungenügendem Ansprechen auf krankheitsmodifizierende Antirheumatika. Abrilada reduziert die Progressionsrate struktureller Schäden und verbessert die körperliche Funktionsfähigkeit bei Patienten mit der polyartikulären, symmetrischen Form der Erkrankung. Abrilada kann als Monotherapie oder in Kombination mit krankheitsmodifizierenden Antirheumatika angewendet werden.\n\nAnkylosierende Spondylitis (Morbus Bechterew)\nAbrilada ist indiziert zur Behandlung von erwachsenen Patienten mit aktiver ankylosierender Spondylitis, die nur unzureichend auf herkömmliche Therapien angesprochen haben.\n\nMorbus Crohn\nAbrilada ist indiziert zur Behandlung von erwachsenen Patienten mit einem Morbus Crohn mit mässiger bis hoher Krankheitsaktivität, die nur unzureichend auf herkömmliche Therapien angesprochen haben, sowie bei erwachsenen Patienten, die nicht mehr auf Infliximab ansprechen oder dieses nicht vertragen.\n\nColitis ulcerosa\nAbrilada ist indiziert zur Behandlung der mittelschweren bis schweren aktiven Colitis ulcerosa bei erwachsenen Patienten, die auf die herkömmliche Therapie, einschliesslich Glukokortikoide und/oder 6-Mercaptopurin (6-MP) oder Azathioprin (AZA), unzureichend angesprochen haben oder die eine Unverträglichkeit gegen eine solche Therapie haben oder bei denen eine solche Therapie kontraindiziert ist.\n\nPsoriasis\nAbrilada ist als Monotherapie indiziert zur Behandlung von erwachsenen Patienten mit mittelschwerer bis schwerer, chronischer Plaque-Psoriasis, bei denen eine systemische Therapie oder eine PUVA-Therapie angezeigt ist.\n\nPsoriasis bei Kindern und Jugendlichen (ab 30 kg Körpergewicht)\nAbrilada ist indiziert zur Behandlung der schweren chronischen Plaque-Psoriasis bei Kindern und Jugendlichen mit einem Körpergewicht ≥30 kg, die nur unzureichend auf Phototherapien oder systemische Vortherapien angesprochen haben oder für die diese Therapien nicht geeignet sind.\n\nHidradenitis suppurativa (Acne inversa)\nAbrilada ist indiziert zur Behandlung von erwachsenen Patienten mit aktiver mittelschwerer bis schwerer Hidradenitis suppurativa (Acne inversa), die unzureichend auf eine systemische Antibiotikatherapie angesprochen haben.\n\nUveitis\nAbrilada ist indiziert zur Induktion (in Kombination mit Kortikosteroiden) und Erhaltung einer Remission bei erwachsenen Patienten mit Kortikosteroid-abhängiger nicht-infektiöser intermediärer Uveitis, posteriorer Uveitis oder Panuveitis, die nur unzureichend auf Kortikosteroide mit oder ohne Immunmodulatoren angesprochen haben oder die eine Kortikoid sparende Behandlung benötigen. Die Kombination mit Kortikosteroiden und/oder Immunmodulatoren richtet sich nach dem anatomischen und funktionellen Verlauf.; legalStatusOfSupply = Medicinal product subject to medical or veterinary prescription (B); additionalMonitoringIndicator = No Warning; pediatricUseIndicator = Authorised for the treatment in children; classification = adalimumab,Extension for biosimilar,Biologics,Originator product,07. STOFFWECHSEL</a></p><blockquote><p><b>indication</b></p><h3>DiseaseSymptomProcedures</h3><table class=\"grid\"><tr><td style=\"display: none\">-</td><td><b>Concept</b></td></tr><tr><td style=\"display: none\">*</td><td><span title=\"Codes:{https://www.meddra.org 10046851}\">Uveitis</span></td></tr></table><h3>IntendedEffects</h3><table class=\"grid\"><tr><td style=\"display: none\">-</td><td><b>Concept</b></td></tr><tr><td style=\"display: none\">*</td><td><span title=\"Codes:{http://spor.ema.europa.eu/v1/lists/200000003186 200000003194}\">therapeutic</span></td></tr></table></blockquote></div>"
      },
      "type" : "indication",
      "subject" : [{
        "reference" : "MedicinalProductDefinition/Abrilada-40mg-Pre-Filled-Pen"
      }],
      "indication" : {
        "diseaseSymptomProcedure" : {
          "concept" : {
            "coding" : [{
              "system" : "https://www.meddra.org",
              "code" : "10046851",
              "display" : "Uveitis"
            }]
          }
        },
        "intendedEffect" : {
          "concept" : {
            "coding" : [{
              "system" : "http://spor.ema.europa.eu/v1/lists/200000003186",
              "code" : "200000003194",
              "display" : "therapeutic"
            }]
          }
        }
      }
    }
  },
  {
    "fullUrl" : "http://fhir.epl.bag.admin.ch/CHIDMPClinicalUseDefinition/LIM-69896004",
    "resource" : {
      "resourceType" : "ClinicalUseDefinition",
      "id" : "LIM-69896004",
      "text" : {
        "status" : "generated",
        "div" : "<div xmlns=\"http://www.w3.org/1999/xhtml\"><a name=\"ClinicalUseDefinition_LIM-69896004\"> </a><p class=\"res-header-id\"><b>Generated Narrative: ClinicalUseDefinition LIM-69896004</b></p><a name=\"LIM-69896004\"> </a><a name=\"hcLIM-69896004\"> </a><p><b>type</b>: Indication</p><blockquote><p><b>indication</b></p><h3>DiseaseSymptomProcedures</h3><table class=\"grid\"><tr><td style=\"display: none\">-</td><td><b>Concept</b></td></tr><tr><td style=\"display: none\">*</td><td><span title=\"Codes:{http://snomed.info/sct 69896004}\">Rheumatoid arthritis</span></td></tr></table><h3>IntendedEffects</h3><table class=\"grid\"><tr><td style=\"display: none\">-</td><td><b>Concept</b></td></tr><tr><td style=\"display: none\">*</td><td><span title=\"Codes:{http://spor.ema.europa.eu/v1/lists/200000003186 200000003194}\">therapeutic</span></td></tr></table></blockquote></div>"
      },
      "type" : "indication",
      "indication" : {
        "diseaseSymptomProcedure" : {
          "concept" : {
            "coding" : [{
              "system" : "http://snomed.info/sct",
              "code" : "69896004",
              "display" : "Rheumatoid arthritis"
            }]
          }
        },
        "intendedEffect" : {
          "concept" : {
            "coding" : [{
              "system" : "http://spor.ema.europa.eu/v1/lists/200000003186",
              "code" : "200000003194",
              "display" : "therapeutic"
            }]
          }
        }
      }
    }
  },
  {
    "fullUrl" : "http://fhir.epl.bag.admin.ch/CHIDMPClinicalUseDefinition/LIM-156370009",
    "resource" : {
      "resourceType" : "ClinicalUseDefinition",
      "id" : "LIM-156370009",
      "text" : {
        "status" : "generated",
        "div" : "<div xmlns=\"http://www.w3.org/1999/xhtml\"><a name=\"ClinicalUseDefinition_LIM-156370009\"> </a><p class=\"res-header-id\"><b>Generated Narrative: ClinicalUseDefinition LIM-156370009</b></p><a name=\"LIM-156370009\"> </a><a name=\"hcLIM-156370009\"> </a><p><b>type</b>: Indication</p><blockquote><p><b>indication</b></p><h3>DiseaseSymptomProcedures</h3><table class=\"grid\"><tr><td style=\"display: none\">-</td><td><b>Concept</b></td></tr><tr><td style=\"display: none\">*</td><td><span title=\"Codes:{http://snomed.info/sct 156370009}\">Psoriatic arthritis</span></td></tr></table><h3>IntendedEffects</h3><table class=\"grid\"><tr><td style=\"display: none\">-</td><td><b>Concept</b></td></tr><tr><td style=\"display: none\">*</td><td><span title=\"Codes:{http://spor.ema.europa.eu/v1/lists/200000003186 200000003194}\">therapeutic</span></td></tr></table></blockquote></div>"
      },
      "type" : "indication",
      "indication" : {
        "diseaseSymptomProcedure" : {
          "concept" : {
            "coding" : [{
              "system" : "http://snomed.info/sct",
              "code" : "156370009",
              "display" : "Psoriatic arthritis"
            }]
          }
        },
        "intendedEffect" : {
          "concept" : {
            "coding" : [{
              "system" : "http://spor.ema.europa.eu/v1/lists/200000003186",
              "code" : "200000003194",
              "display" : "therapeutic"
            }]
          }
        }
      }
    }
  },
  {
    "fullUrl" : "http://fhir.epl.bag.admin.ch/CHIDMPClinicalUseDefinition/LIM-9631008",
    "resource" : {
      "resourceType" : "ClinicalUseDefinition",
      "id" : "LIM-9631008",
      "text" : {
        "status" : "generated",
        "div" : "<div xmlns=\"http://www.w3.org/1999/xhtml\"><a name=\"ClinicalUseDefinition_LIM-9631008\"> </a><p class=\"res-header-id\"><b>Generated Narrative: ClinicalUseDefinition LIM-9631008</b></p><a name=\"LIM-9631008\"> </a><a name=\"hcLIM-9631008\"> </a><p><b>type</b>: Indication</p><blockquote><p><b>indication</b></p><h3>DiseaseSymptomProcedures</h3><table class=\"grid\"><tr><td style=\"display: none\">-</td><td><b>Concept</b></td></tr><tr><td style=\"display: none\">*</td><td><span title=\"Codes:{http://snomed.info/sct 9631008}\">Ankylosing spondylitis</span></td></tr></table><h3>IntendedEffects</h3><table class=\"grid\"><tr><td style=\"display: none\">-</td><td><b>Concept</b></td></tr><tr><td style=\"display: none\">*</td><td><span title=\"Codes:{http://spor.ema.europa.eu/v1/lists/200000003186 200000003194}\">therapeutic</span></td></tr></table></blockquote></div>"
      },
      "type" : "indication",
      "indication" : {
        "diseaseSymptomProcedure" : {
          "concept" : {
            "coding" : [{
              "system" : "http://snomed.info/sct",
              "code" : "9631008",
              "display" : "Ankylosing spondylitis"
            }]
          }
        },
        "intendedEffect" : {
          "concept" : {
            "coding" : [{
              "system" : "http://spor.ema.europa.eu/v1/lists/200000003186",
              "code" : "200000003194",
              "display" : "therapeutic"
            }]
          }
        }
      }
    }
  },
  {
    "fullUrl" : "http://fhir.epl.bag.admin.ch/CHIDMPClinicalUseDefinition/LIM-34000006",
    "resource" : {
      "resourceType" : "ClinicalUseDefinition",
      "id" : "LIM-34000006",
      "text" : {
        "status" : "generated",
        "div" : "<div xmlns=\"http://www.w3.org/1999/xhtml\"><a name=\"ClinicalUseDefinition_LIM-34000006\"> </a><p class=\"res-header-id\"><b>Generated Narrative: ClinicalUseDefinition LIM-34000006</b></p><a name=\"LIM-34000006\"> </a><a name=\"hcLIM-34000006\"> </a><p><b>type</b>: Indication</p><blockquote><p><b>indication</b></p><h3>DiseaseSymptomProcedures</h3><table class=\"grid\"><tr><td style=\"display: none\">-</td><td><b>Concept</b></td></tr><tr><td style=\"display: none\">*</td><td><span title=\"Codes:{http://snomed.info/sct 34000006}\">Crohn's disease</span></td></tr></table><h3>IntendedEffects</h3><table class=\"grid\"><tr><td style=\"display: none\">-</td><td><b>Concept</b></td></tr><tr><td style=\"display: none\">*</td><td><span title=\"Codes:{http://spor.ema.europa.eu/v1/lists/200000003186 200000003194}\">therapeutic</span></td></tr></table></blockquote></div>"
      },
      "type" : "indication",
      "indication" : {
        "diseaseSymptomProcedure" : {
          "concept" : {
            "coding" : [{
              "system" : "http://snomed.info/sct",
              "code" : "34000006",
              "display" : "Crohn's disease"
            }]
          }
        },
        "intendedEffect" : {
          "concept" : {
            "coding" : [{
              "system" : "http://spor.ema.europa.eu/v1/lists/200000003186",
              "code" : "200000003194",
              "display" : "therapeutic"
            }]
          }
        }
      }
    }
  },
  {
    "fullUrl" : "http://fhir.epl.bag.admin.ch/CHIDMPClinicalUseDefinition/LIM-64766004",
    "resource" : {
      "resourceType" : "ClinicalUseDefinition",
      "id" : "LIM-64766004",
      "text" : {
        "status" : "generated",
        "div" : "<div xmlns=\"http://www.w3.org/1999/xhtml\"><a name=\"ClinicalUseDefinition_LIM-64766004\"> </a><p class=\"res-header-id\"><b>Generated Narrative: ClinicalUseDefinition LIM-64766004</b></p><a name=\"LIM-64766004\"> </a><a name=\"hcLIM-64766004\"> </a><p><b>type</b>: Indication</p><blockquote><p><b>indication</b></p><h3>DiseaseSymptomProcedures</h3><table class=\"grid\"><tr><td style=\"display: none\">-</td><td><b>Concept</b></td></tr><tr><td style=\"display: none\">*</td><td><span title=\"Codes:{http://snomed.info/sct 64766004}\">Ulcerative colitis</span></td></tr></table><h3>IntendedEffects</h3><table class=\"grid\"><tr><td style=\"display: none\">-</td><td><b>Concept</b></td></tr><tr><td style=\"display: none\">*</td><td><span title=\"Codes:{http://spor.ema.europa.eu/v1/lists/200000003186 200000003194}\">therapeutic</span></td></tr></table></blockquote></div>"
      },
      "type" : "indication",
      "indication" : {
        "diseaseSymptomProcedure" : {
          "concept" : {
            "coding" : [{
              "system" : "http://snomed.info/sct",
              "code" : "64766004",
              "display" : "Ulcerative colitis"
            }]
          }
        },
        "intendedEffect" : {
          "concept" : {
            "coding" : [{
              "system" : "http://spor.ema.europa.eu/v1/lists/200000003186",
              "code" : "200000003194",
              "display" : "therapeutic"
            }]
          }
        }
      }
    }
  },
  {
    "fullUrl" : "http://fhir.epl.bag.admin.ch/CHIDMPClinicalUseDefinition/LIM-9014002",
    "resource" : {
      "resourceType" : "ClinicalUseDefinition",
      "id" : "LIM-9014002",
      "text" : {
        "status" : "generated",
        "div" : "<div xmlns=\"http://www.w3.org/1999/xhtml\"><a name=\"ClinicalUseDefinition_LIM-9014002\"> </a><p class=\"res-header-id\"><b>Generated Narrative: ClinicalUseDefinition LIM-9014002</b></p><a name=\"LIM-9014002\"> </a><a name=\"hcLIM-9014002\"> </a><p><b>type</b>: Indication</p><blockquote><p><b>indication</b></p><h3>DiseaseSymptomProcedures</h3><table class=\"grid\"><tr><td style=\"display: none\">-</td><td><b>Concept</b></td></tr><tr><td style=\"display: none\">*</td><td><span title=\"Codes:{http://snomed.info/sct 9014002}\">Psoriasis (disorder)</span></td></tr></table><h3>IntendedEffects</h3><table class=\"grid\"><tr><td style=\"display: none\">-</td><td><b>Concept</b></td></tr><tr><td style=\"display: none\">*</td><td><span title=\"Codes:{http://spor.ema.europa.eu/v1/lists/200000003186 200000003194}\">therapeutic</span></td></tr></table></blockquote></div>"
      },
      "type" : "indication",
      "indication" : {
        "diseaseSymptomProcedure" : {
          "concept" : {
            "coding" : [{
              "system" : "http://snomed.info/sct",
              "code" : "9014002",
              "display" : "Psoriasis (disorder)"
            }]
          }
        },
        "intendedEffect" : {
          "concept" : {
            "coding" : [{
              "system" : "http://spor.ema.europa.eu/v1/lists/200000003186",
              "code" : "200000003194",
              "display" : "therapeutic"
            }]
          }
        }
      }
    }
  },
  {
    "fullUrl" : "http://fhir.epl.bag.admin.ch/CHIDMPClinicalUseDefinition/LIM-59393003",
    "resource" : {
      "resourceType" : "ClinicalUseDefinition",
      "id" : "LIM-59393003",
      "text" : {
        "status" : "generated",
        "div" : "<div xmlns=\"http://www.w3.org/1999/xhtml\"><a name=\"ClinicalUseDefinition_LIM-59393003\"> </a><p class=\"res-header-id\"><b>Generated Narrative: ClinicalUseDefinition LIM-59393003</b></p><a name=\"LIM-59393003\"> </a><a name=\"hcLIM-59393003\"> </a><p><b>type</b>: Indication</p><blockquote><p><b>indication</b></p><h3>DiseaseSymptomProcedures</h3><table class=\"grid\"><tr><td style=\"display: none\">-</td><td><b>Concept</b></td></tr><tr><td style=\"display: none\">*</td><td><span title=\"Codes:{http://snomed.info/sct 59393003}\">Hidradenitis suppurativa</span></td></tr></table><h3>IntendedEffects</h3><table class=\"grid\"><tr><td style=\"display: none\">-</td><td><b>Concept</b></td></tr><tr><td style=\"display: none\">*</td><td><span title=\"Codes:{http://spor.ema.europa.eu/v1/lists/200000003186 200000003194}\">therapeutic</span></td></tr></table></blockquote></div>"
      },
      "type" : "indication",
      "indication" : {
        "diseaseSymptomProcedure" : {
          "concept" : {
            "coding" : [{
              "system" : "http://snomed.info/sct",
              "code" : "59393003",
              "display" : "Hidradenitis suppurativa"
            }]
          }
        },
        "intendedEffect" : {
          "concept" : {
            "coding" : [{
              "system" : "http://spor.ema.europa.eu/v1/lists/200000003186",
              "code" : "200000003194",
              "display" : "therapeutic"
            }]
          }
        }
      }
    }
  }]
}