{
  "resourceType" : "RegulatedAuthorization",
  "id" : "MA-52042011",
  "meta" : {
    "profile" : ["http://fhir.ch/ig/ch-epl/StructureDefinition/ch-idmp-regulatedauthorization"]
  },
  "text" : {
    "status" : "generated",
    "div" : "<div xmlns=\"http://www.w3.org/1999/xhtml\"><p class=\"res-header-id\"><b>Generated Narrative: RegulatedAuthorization MA-52042011</b></p><a name=\"MA-52042011\"> </a><a name=\"hcMA-52042011\"> </a><div style=\"display: inline-block; background-color: #d9e0e7; padding: 6px; margin: 4px; border: 1px solid #8da1b4; border-radius: 5px; line-height: 60%\"><p style=\"margin-bottom: 0px\"/><p style=\"margin-bottom: 0px\">Profile: <a href=\"StructureDefinition-ch-idmp-regulatedauthorization.html\">IDMP RegulatedAuthorization</a></p></div><p><b>identifier</b>: <a href=\"NamingSystem-AuthNo.html\" title=\"Temporary Identifier in this implementation guide until officially released by Swissmedic\">Marketing Authorisation Number</a>/52042011</p><p><b>subject</b>: <a href=\"MedicinalProductDefinition-Entocort-Solvent-and-Tablet.html\">MedicinalProductDefinition: extension = Tablet and solvent for rectal suspension,Distale Form der Colitis ulcerosa bei ungenügendem Ansprechen auf oder Kontraindikation für Mesalazin.; identifier = http://fhir.ch/ig/ch-epl/sid/mpid#Medical Product Identifier#CH-7601001346451-5204201; combinedPharmaceuticalDoseForm = Tablet and solvent for rectal suspension; indication = Leichte bis mittelschwere Colitis ulcerosa des Rectums sowie des Colon sigmoideum.; legalStatusOfSupply = Medicinal product subject to medical or veterinary prescription (B); additionalMonitoringIndicator = No Warning; pediatricUseIndicator = Authorised for the treatment in children; classification = budesonide,NA KAS art. 12 para. 5 TPLO,Synthetic,Originator product,04. GASTROENTEROLOGICA</a></p><p><b>type</b>: <span title=\"Codes:{http://fhir.ch/ig/ch-epl/CodeSystem/ch-authorisation-type 756000002001}\">Marketing Authorisation</span></p><p><b>region</b>: <span title=\"Codes:{urn:iso:std:iso:3166 CH}\">Switzerland</span></p><p><b>status</b>: <span title=\"Codes:{http://fhir.ch/ig/ch-epl/CodeSystem/ch-SMC-authorisation-status 756005023007}\">valid</span></p><p><b>statusDate</b>: 1993-06-18</p><p><b>holder</b>: <a href=\"#hcMA-52042011/holder-Tillotts-Pharma-AG\">Organization Tillotts Pharma AG</a></p><p><b>regulator</b>: <a href=\"#hcMA-52042011/regulator-SMC\">Organization SMC</a></p><hr/><blockquote><p class=\"res-header-id\"><b>Generated Narrative: Organization #holder-Tillotts-Pharma-AG</b></p><a name=\"MA-52042011/holder-Tillotts-Pharma-AG\"> </a><a name=\"hcMA-52042011/holder-Tillotts-Pharma-AG\"> </a><div style=\"display: inline-block; background-color: #d9e0e7; padding: 6px; margin: 4px; border: 1px solid #8da1b4; border-radius: 5px; line-height: 60%\"><p style=\"margin-bottom: 0px\"/><p style=\"margin-bottom: 0px\">Profile: <a href=\"StructureDefinition-ch-epl-organization.html\">CH EPL Organization</a></p></div><p><b>identifier</b>: <a href=\"NamingSystem-LOC.html\" title=\"Identifier holding a number for LocID (Location Identifier of the European Medicines Agency - Organisation Management System OMS)\">LOC Identifier</a>/100005174, <a href=\"NamingSystem-GLN.html\" title=\"Identifier holding a number for GLN (Global Location Number)\">GLN Identifier</a>/7601001346451</p><p><b>name</b>: Tillotts Pharma AG</p></blockquote><hr/><blockquote><p class=\"res-header-id\"><b>Generated Narrative: Organization #regulator-SMC</b></p><a name=\"MA-52042011/regulator-SMC\"> </a><a name=\"hcMA-52042011/regulator-SMC\"> </a><div style=\"display: inline-block; background-color: #d9e0e7; padding: 6px; margin: 4px; border: 1px solid #8da1b4; border-radius: 5px; line-height: 60%\"><p style=\"margin-bottom: 0px\"/><p style=\"margin-bottom: 0px\">Profile: <a href=\"StructureDefinition-ch-epl-organization.html\">CH EPL Organization</a></p></div><p><b>identifier</b>: <a href=\"NamingSystem-LOC.html\" title=\"Identifier holding a number for LocID (Location Identifier of the European Medicines Agency - Organisation Management System OMS)\">LOC Identifier</a>/100010911, <a href=\"NamingSystem-GLN.html\" title=\"Identifier holding a number for GLN (Global Location Number)\">GLN Identifier</a>/7601001398511</p><p><b>name</b>: SMC</p></blockquote></div>"
  },
  "contained" : [{
    "resourceType" : "Organization",
    "id" : "holder-Tillotts-Pharma-AG",
    "meta" : {
      "profile" : ["http://fhir.ch/ig/ch-epl/StructureDefinition/ch-epl-organization"]
    },
    "identifier" : [{
      "system" : "urn:oid:1.2.276.0.76",
      "value" : "100005174"
    },
    {
      "system" : "urn:oid:2.51.1.3",
      "value" : "7601001346451"
    }],
    "name" : "Tillotts Pharma AG"
  },
  {
    "resourceType" : "Organization",
    "id" : "regulator-SMC",
    "meta" : {
      "profile" : ["http://fhir.ch/ig/ch-epl/StructureDefinition/ch-epl-organization"]
    },
    "identifier" : [{
      "system" : "urn:oid:1.2.276.0.76",
      "value" : "100010911"
    },
    {
      "system" : "urn:oid:2.51.1.3",
      "value" : "7601001398511"
    }],
    "name" : "SMC"
  }],
  "identifier" : [{
    "system" : "http://fhir.ch/ig/ch-epl/sid/authno",
    "value" : "52042011"
  }],
  "subject" : [{
    "reference" : "MedicinalProductDefinition/Entocort-Solvent-and-Tablet"
  }],
  "type" : {
    "coding" : [{
      "system" : "http://fhir.ch/ig/ch-epl/CodeSystem/ch-authorisation-type",
      "code" : "756000002001",
      "display" : "Marketing Authorisation"
    }]
  },
  "region" : [{
    "coding" : [{
      "system" : "urn:iso:std:iso:3166",
      "code" : "CH",
      "display" : "Switzerland"
    }]
  }],
  "status" : {
    "coding" : [{
      "system" : "http://fhir.ch/ig/ch-epl/CodeSystem/ch-SMC-authorisation-status",
      "code" : "756005023007",
      "display" : "valid"
    }]
  },
  "statusDate" : "1993-06-18",
  "holder" : {
    "reference" : "#holder-Tillotts-Pharma-AG"
  },
  "regulator" : {
    "reference" : "#regulator-SMC"
  }
}