<?xml version="1.0" encoding="UTF-8"?>

<RegulatedAuthorization xmlns="http://hl7.org/fhir">
  <id value="MA-67431001"/>
  <meta>
    <profile value="http://fhir.ch/ig/ch-epl/StructureDefinition/ch-idmp-regulatedauthorization"/>
  </meta>
  <text>
    <status value="generated"/><div xmlns="http://www.w3.org/1999/xhtml"><p class="res-header-id"><b>Generated Narrative: RegulatedAuthorization MA-67431001</b></p><a name="MA-67431001"> </a><a name="hcMA-67431001"> </a><div style="display: inline-block; background-color: #d9e0e7; padding: 6px; margin: 4px; border: 1px solid #8da1b4; border-radius: 5px; line-height: 60%"><p style="margin-bottom: 0px"/><p style="margin-bottom: 0px">Profile: <a href="StructureDefinition-ch-idmp-regulatedauthorization.html">IDMP RegulatedAuthorization</a></p></div><p><b>identifier</b>: <a href="NamingSystem-AuthNo.html" title="Temporary Identifier in this implementation guide until officially released by Swissmedic">Marketing Authorisation Number</a>/67431001</p><p><b>subject</b>: <a href="MedicinalProductDefinition-Triogen-250mg-Capsule.html">MedicinalProductDefinition: extension = Capsule, hard,TRIOGEN wird vergütet zur Behandlung der Kupferspeicherkrankheit (Morbus Wilson) bei Patienten, die eine Behandlung mit D-Penicillamin nicht vertragen. Die Behandlung muss von Gastroenterologen oder Hepatologen mit Erfahrung bei der Behandlung von Patienten mit Morbus Wilson initiiert und überwacht werden.; identifier = http://fhir.ch/ig/ch-epl/sid/mpid#Medical Product Identifier#CH-7601001403062-6743101; indication = Zur Behandlung der Kupferspeicherkrankheit (Morbus Wilson) bei Patienten, die eine Behandlung mit D-Penicillamin nicht vertragen.; legalStatusOfSupply = Medicinal product subject to medical or veterinary prescription (B); additionalMonitoringIndicator = No Warning; pediatricUseIndicator = Authorised for the treatment in children; classification = trientine,NA KAS art. 12 para. 5 TPLO,Synthetic,Originator product,07. STOFFWECHSEL</a></p><p><b>type</b>: <span title="Codes:{http://fhir.ch/ig/ch-epl/CodeSystem/ch-authorisation-type 756000002001}">Marketing Authorisation</span></p><p><b>region</b>: <span title="Codes:{urn:iso:std:iso:3166 CH}">Switzerland</span></p><p><b>status</b>: <span title="Codes:{http://fhir.ch/ig/ch-epl/CodeSystem/ch-SMC-authorisation-status 756005023007}">valid</span></p><p><b>statusDate</b>: 2020-05-28</p><p><b>holder</b>: <a href="#hcMA-67431001/holder-Ideogen-AG">Organization IDEOGEN AG</a></p><p><b>regulator</b>: <a href="#hcMA-67431001/regulator-SMC">Organization SMC</a></p><hr/><blockquote><p class="res-header-id"><b>Generated Narrative: Organization #holder-Ideogen-AG</b></p><a name="MA-67431001/holder-Ideogen-AG"> </a><a name="hcMA-67431001/holder-Ideogen-AG"> </a><div style="display: inline-block; background-color: #d9e0e7; padding: 6px; margin: 4px; border: 1px solid #8da1b4; border-radius: 5px; line-height: 60%"><p style="margin-bottom: 0px"/><p style="margin-bottom: 0px">Profile: <a href="StructureDefinition-ch-epl-organization.html">CH EPL Organization</a></p></div><p><b>identifier</b>: <a href="NamingSystem-LOC.html" title="Identifier holding a number for LocID (Location Identifier of the European Medicines Agency - Organisation Management System OMS)">LOC Identifier</a>/100012910, <a href="NamingSystem-GLN.html" title="Identifier holding a number for GLN (Global Location Number)">GLN Identifier</a>/7601001403062</p><p><b>name</b>: IDEOGEN AG</p></blockquote><hr/><blockquote><p class="res-header-id"><b>Generated Narrative: Organization #regulator-SMC</b></p><a name="MA-67431001/regulator-SMC"> </a><a name="hcMA-67431001/regulator-SMC"> </a><div style="display: inline-block; background-color: #d9e0e7; padding: 6px; margin: 4px; border: 1px solid #8da1b4; border-radius: 5px; line-height: 60%"><p style="margin-bottom: 0px"/><p style="margin-bottom: 0px">Profile: <a href="StructureDefinition-ch-epl-organization.html">CH EPL Organization</a></p></div><p><b>identifier</b>: <a href="NamingSystem-LOC.html" title="Identifier holding a number for LocID (Location Identifier of the European Medicines Agency - Organisation Management System OMS)">LOC Identifier</a>/100010911, <a href="NamingSystem-GLN.html" title="Identifier holding a number for GLN (Global Location Number)">GLN Identifier</a>/7601001398511</p><p><b>name</b>: SMC</p></blockquote></div>
  </text>
  <contained>
    <Organization>
      <id value="holder-Ideogen-AG"/>
      <meta>
        <profile value="http://fhir.ch/ig/ch-epl/StructureDefinition/ch-epl-organization"/>
      </meta>
      <identifier>
        <system value="urn:oid:1.2.276.0.76"/>
        <value value="100012910"/>
      </identifier>
      <identifier>
        <system value="urn:oid:2.51.1.3"/>
        <value value="7601001403062"/>
      </identifier>
      <name value="IDEOGEN AG"/>
    </Organization>
  </contained>
  <contained>
    <Organization>
      <id value="regulator-SMC"/>
      <meta>
        <profile value="http://fhir.ch/ig/ch-epl/StructureDefinition/ch-epl-organization"/>
      </meta>
      <identifier>
        <system value="urn:oid:1.2.276.0.76"/>
        <value value="100010911"/>
      </identifier>
      <identifier>
        <system value="urn:oid:2.51.1.3"/>
        <value value="7601001398511"/>
      </identifier>
      <name value="SMC"/>
    </Organization>
  </contained>
  <identifier>
    <system value="http://fhir.ch/ig/ch-epl/sid/authno"/>
    <value value="67431001"/>
  </identifier>
  <subject>
    <reference value="MedicinalProductDefinition/Triogen-250mg-Capsule"/>
  </subject>
  <type>
    <coding>
      <system value="http://fhir.ch/ig/ch-epl/CodeSystem/ch-authorisation-type"/>
      <code value="756000002001"/>
      <display value="Marketing Authorisation"/>
    </coding>
  </type>
  <region>
    <coding>
      <system value="urn:iso:std:iso:3166"/>
      <code value="CH"/>
      <display value="Switzerland"/>
    </coding>
  </region>
  <status>
    <coding>
      <system value="http://fhir.ch/ig/ch-epl/CodeSystem/ch-SMC-authorisation-status"/>
      <code value="756005023007"/>
      <display value="valid"/>
    </coding>
  </status>
  <statusDate value="2020-05-28"/>
  <holder>
    <reference value="#holder-Ideogen-AG"/>
  </holder>
  <regulator>
    <reference value="#regulator-SMC"/>
  </regulator>
</RegulatedAuthorization>