<?xml version="1.0" encoding="UTF-8"?>

<RegulatedAuthorization xmlns="http://hl7.org/fhir">
  <id value="MA-54704089"/>
  <meta>
    <profile value="http://fhir.ch/ig/ch-epl/StructureDefinition/ch-idmp-regulatedauthorization"/>
  </meta>
  <text>
    <status value="generated"/><div xmlns="http://www.w3.org/1999/xhtml"><p class="res-header-id"><b>Generated Narrative: RegulatedAuthorization MA-54704089</b></p><a name="MA-54704089"> </a><a name="hcMA-54704089"> </a><div style="display: inline-block; background-color: #d9e0e7; padding: 6px; margin: 4px; border: 1px solid #8da1b4; border-radius: 5px; line-height: 60%"><p style="margin-bottom: 0px"/><p style="margin-bottom: 0px">Profile: <a href="StructureDefinition-ch-idmp-regulatedauthorization.html">IDMP RegulatedAuthorization</a></p></div><p><b>identifier</b>: <a href="NamingSystem-AuthNo.html" title="Temporary Identifier in this implementation guide until officially released by Swissmedic">Marketing Authorisation Number</a>/54704089</p><p><b>subject</b>: <a href="MedicinalProductDefinition-Estalis-Transdermalpatch.html">MedicinalProductDefinition: extension = Transdermal patch; identifier = http://fhir.ch/ig/ch-epl/sid/mpid#Medical Product Identifier#CH-7601001029439-5470402; indication = Klimakterische Beschwerden: Behandlung der Symptome des Östrogenmangels infolge der natürlichen oder künstlichen Menopause bei nicht-hysterektomierten Frauen.
Osteoporoseprophylaxe: Vorbeugung oder Verzögerung einer durch Östrogenmangel induzierten Osteoporose bei postmenopausalen Frauen mit hohem Frakturrisiko, für die eine Behandlung mit anderen zur Prävention der Osteoporose zugelassenen Arzneimitteln nicht in Frage kommt, oder bei Frauen die gleichzeitig an behandlungsbedürftigen Symptomen des Östrogenmangels leiden.; legalStatusOfSupply = Medicinal product subject to medical or veterinary prescription (B); additionalMonitoringIndicator = No Warning; pediatricUseIndicator = Not authorised for the treatment in children; classification = norethisterone and estrogen,NA KAS art. 12 para. 5 TPLO,Synthetic,Originator product</a></p><p><b>type</b>: <span title="Codes:{http://fhir.ch/ig/ch-epl/CodeSystem/ch-authorisation-type 756000002001}">Marketing Authorisation</span></p><p><b>region</b>: <span title="Codes:{urn:iso:std:iso:3166 CH}">Switzerland</span></p><p><b>status</b>: <span title="Codes:{http://fhir.ch/ig/ch-epl/CodeSystem/ch-SMC-authorisation-status 756005023007}">valid</span></p><p><b>statusDate</b>: 1999-08-17</p><p><b>holder</b>: <a href="#hcMA-54704089/holder-Sandoz-Pharmaceuticals-AG">Organization Sandoz Pharmaceuticals AG</a></p><p><b>regulator</b>: <a href="#hcMA-54704089/regulator-SMC">Organization SMC</a></p><hr/><blockquote><p class="res-header-id"><b>Generated Narrative: Organization #holder-Sandoz-Pharmaceuticals-AG</b></p><a name="MA-54704089/holder-Sandoz-Pharmaceuticals-AG"> </a><a name="hcMA-54704089/holder-Sandoz-Pharmaceuticals-AG"> </a><div style="display: inline-block; background-color: #d9e0e7; padding: 6px; margin: 4px; border: 1px solid #8da1b4; border-radius: 5px; line-height: 60%"><p style="margin-bottom: 0px"/><p style="margin-bottom: 0px">Profile: <a href="StructureDefinition-ch-epl-organization.html">CH EPL Organization</a></p></div><p><b>identifier</b>: <a href="NamingSystem-LOC.html" title="Identifier holding a number for LocID (Location Identifier of the European Medicines Agency - Organisation Management System OMS)">LOC Identifier</a>/100054743, <a href="NamingSystem-GLN.html" title="Identifier holding a number for GLN (Global Location Number)">GLN Identifier</a>/7601001029439</p><p><b>name</b>: Sandoz Pharmaceuticals AG</p></blockquote><hr/><blockquote><p class="res-header-id"><b>Generated Narrative: Organization #regulator-SMC</b></p><a name="MA-54704089/regulator-SMC"> </a><a name="hcMA-54704089/regulator-SMC"> </a><div style="display: inline-block; background-color: #d9e0e7; padding: 6px; margin: 4px; border: 1px solid #8da1b4; border-radius: 5px; line-height: 60%"><p style="margin-bottom: 0px"/><p style="margin-bottom: 0px">Profile: <a href="StructureDefinition-ch-epl-organization.html">CH EPL Organization</a></p></div><p><b>identifier</b>: <a href="NamingSystem-LOC.html" title="Identifier holding a number for LocID (Location Identifier of the European Medicines Agency - Organisation Management System OMS)">LOC Identifier</a>/100010911, <a href="NamingSystem-GLN.html" title="Identifier holding a number for GLN (Global Location Number)">GLN Identifier</a>/7601001398511</p><p><b>name</b>: SMC</p></blockquote></div>
  </text>
  <contained>
    <Organization>
      <id value="holder-Sandoz-Pharmaceuticals-AG"/>
      <meta>
        <profile value="http://fhir.ch/ig/ch-epl/StructureDefinition/ch-epl-organization"/>
      </meta>
      <identifier>
        <system value="urn:oid:1.2.276.0.76"/>
        <value value="100054743"/>
      </identifier>
      <identifier>
        <system value="urn:oid:2.51.1.3"/>
        <value value="7601001029439"/>
      </identifier>
      <name value="Sandoz Pharmaceuticals AG"/>
    </Organization>
  </contained>
  <contained>
    <Organization>
      <id value="regulator-SMC"/>
      <meta>
        <profile value="http://fhir.ch/ig/ch-epl/StructureDefinition/ch-epl-organization"/>
      </meta>
      <identifier>
        <system value="urn:oid:1.2.276.0.76"/>
        <value value="100010911"/>
      </identifier>
      <identifier>
        <system value="urn:oid:2.51.1.3"/>
        <value value="7601001398511"/>
      </identifier>
      <name value="SMC"/>
    </Organization>
  </contained>
  <identifier>
    <system value="http://fhir.ch/ig/ch-epl/sid/authno"/>
    <value value="54704089"/>
  </identifier>
  <subject>
    <reference value="MedicinalProductDefinition/Estalis-Transdermalpatch"/>
  </subject>
  <type>
    <coding>
      <system value="http://fhir.ch/ig/ch-epl/CodeSystem/ch-authorisation-type"/>
      <code value="756000002001"/>
      <display value="Marketing Authorisation"/>
    </coding>
  </type>
  <region>
    <coding>
      <system value="urn:iso:std:iso:3166"/>
      <code value="CH"/>
      <display value="Switzerland"/>
    </coding>
  </region>
  <status>
    <coding>
      <system value="http://fhir.ch/ig/ch-epl/CodeSystem/ch-SMC-authorisation-status"/>
      <code value="756005023007"/>
      <display value="valid"/>
    </coding>
  </status>
  <statusDate value="1999-08-17"/>
  <holder>
    <reference value="#holder-Sandoz-Pharmaceuticals-AG"/>
  </holder>
  <regulator>
    <reference value="#regulator-SMC"/>
  </regulator>
</RegulatedAuthorization>