<?xml version="1.0" encoding="UTF-8"?>

<Bundle xmlns="http://hl7.org/fhir">
  <id value="57Doc-West-Nile"/>
  <identifier>
    <system value="urn:ietf:rfc:3986"/>
    <value value="urn:uuid:6401332d-6012-443f-9690-9331adb23aab"/>
  </identifier>
  <type value="document"/>
  <timestamp value="2024-09-05T12:00:00+02:00"/>
  <entry>
    <fullUrl value="urn:uuid:71483cc8-3f36-4f11-9e41-5347bc125188"/>
    <resource>
      <Composition>
        <id value="71483cc8-3f36-4f11-9e41-5347bc125188"/>
        <language value="de-CH"/>
        <identifier>
          <system value="urn:ietf:rfc:3986"/>
          <value value="urn:uuid:6401332d-6012-443f-9690-9331adb23aab"/>
        </identifier>
        <status value="final"/>
        <type>
          <coding>
            <system value="http://snomed.info/sct"/>
            <version value="http://snomed.info/sct/2011000195101"/>
            <code value="4241000179101"/>
            <display value="Laborbericht"/>
          </coding>
          <coding>
            <system value="http://loinc.org"/>
            <code value="11502-2"/>
            <display value="Laboratory report"/>
          </coding>
        </type>
        <subject>
          <reference value="urn:uuid:cd46692b-979e-490b-9209-b12ee80d3343"/>
        </subject>
        <date value="2024-09-05T12:00:00+02:00"/>
        <author>
          <reference value="urn:uuid:3eb8dba9-dbbf-4692-8445-1e7f6269198e"/>
        </author>
        <title value="Laborbericht vom 2.9.2024"/>
        <section>
          <title value="Analyseergebnisse der mikrobiologischen Untersuchung"/>
          <code>
            <coding>
              <system value="http://loinc.org"/>
              <code value="18725-2"/>
              <display value="Microbiology studies (set)"/>
            </coding>
          </code>
          <entry>
            <reference value="urn:uuid:ae07aeeb-6e01-426c-84c3-1e5a5f98288f"/>
          </entry>
        </section>
      </Composition>
    </resource>
  </entry>
  <entry>
    <fullUrl value="urn:uuid:cd46692b-979e-490b-9209-b12ee80d3343"/>
    <resource>
      <Patient>
        <id value="cd46692b-979e-490b-9209-b12ee80d3343"/>
        <identifier>
          <system value="urn:oid:2.16.756.5.32"/>
          <value value="7561234567897"/>
        </identifier>
        <name>
          <family value="Dupont"/>
          <given value="Antoine"/>
        </name>
        <gender value="female"/>
        <birthDate value="1981-02-07"/>
        <address>
          <use value="home"/>
          <line value="rue de la république 10">
            <extension url="http://hl7.org/fhir/StructureDefinition/iso21090-ADXP-streetName">
              <valueString value="rue de la république"/>
            </extension>
            <extension url="http://hl7.org/fhir/StructureDefinition/iso21090-ADXP-houseNumber">
              <valueString value="10"/>
            </extension>
          </line>
          <city value="Carouge"/>
          <state value="GE"/>
          <postalCode value="1227"/>
          <country value="CH">
            <extension url="http://hl7.org/fhir/StructureDefinition/iso21090-SC-coding">
              <valueCoding>
                <system value="urn:iso:std:iso:3166"/>
                <code value="CH"/>
              </valueCoding>
            </extension>
          </country>
        </address>
      </Patient>
    </resource>
  </entry>
  <entry>
    <fullUrl value="urn:uuid:3eb8dba9-dbbf-4692-8445-1e7f6269198e"/>
    <resource>
      <Organization>
        <id value="3eb8dba9-dbbf-4692-8445-1e7f6269198e"/>
        <identifier>
          <system value="urn:oid:2.51.1.3"/>
          <value value="7601002331470"/>
        </identifier>
        <name value="SanLab"/>
      </Organization>
    </resource>
  </entry>
  <entry>
    <fullUrl value="urn:uuid:ae07aeeb-6e01-426c-84c3-1e5a5f98288f"/>
    <resource>
      <Observation>
        <id value="ae07aeeb-6e01-426c-84c3-1e5a5f98288f"/>
        <status value="final"/>
        <category>
          <coding>
            <system value="http://terminology.hl7.org/CodeSystem/observation-category"/>
            <code value="laboratory"/>
            <display value="Laboratory"/>
          </coding>
        </category>
        <code>
          <coding>
            <system value="http://loinc.org"/>
            <code value="6584-7"/>
          </coding>
        </code>
        <subject>
          <reference value="urn:uuid:cd46692b-979e-490b-9209-b12ee80d3343"/>
        </subject>
        <effectiveDateTime value="2024-08-28T14:20:00+02:00"/>
        <performer>
          <reference value="urn:uuid:3eb8dba9-dbbf-4692-8445-1e7f6269198e"/>
        </performer>
        <valueCodeableConcept>
          <coding>
            <system value="http://snomed.info/sct"/>
            <code value="57311007"/>
          </coding>
        </valueCodeableConcept>
        <interpretation>
          <coding>
            <system value="http://terminology.hl7.org/CodeSystem/v3-ObservationInterpretation"/>
            <code value="POS"/>
            <display value="Positive"/>
          </coding>
        </interpretation>
        <specimen>
          <reference value="urn:uuid:1703a3dc-84e6-4f7d-a4c8-4062a8bc3558"/>
        </specimen>
      </Observation>
    </resource>
  </entry>
  <entry>
    <fullUrl value="urn:uuid:a14fd062-4d82-4857-ad6a-a5d4568a8388"/>
    <resource>
      <Practitioner>
        <id value="a14fd062-4d82-4857-ad6a-a5d4568a8388"/>
        <identifier>
          <system value="urn:oid:2.51.1.3"/>
          <value value="7601000000514"/>
        </identifier>
        <name>
          <family value="Hauser"/>
          <given value="Peter"/>
        </name>
        <telecom>
          <system value="phone"/>
          <value value="+41 79 222 33 44"/>
        </telecom>
        <telecom>
          <system value="email"/>
          <value value="peter.hauser@hauserpraxis.ch"/>
        </telecom>
      </Practitioner>
    </resource>
  </entry>
  <entry>
    <fullUrl value="urn:uuid:3a1c3e77-2d3c-49d0-a098-339eca8bc2b5"/>
    <resource>
      <Organization>
        <id value="3a1c3e77-2d3c-49d0-a098-339eca8bc2b5"/>
        <identifier>
          <system value="urn:oid:2.16.756.5.45"/>
          <value value="A74966168"/>
        </identifier>
        <name value="Praxis Dr. Hauser"/>
        <address>
          <line value="Hauptstrasse 10">
            <extension url="http://hl7.org/fhir/StructureDefinition/iso21090-ADXP-streetName">
              <valueString value="Hauptstrasse"/>
            </extension>
            <extension url="http://hl7.org/fhir/StructureDefinition/iso21090-ADXP-houseNumber">
              <valueString value="10"/>
            </extension>
          </line>
          <city value="Solothurn"/>
          <postalCode value="4500"/>
        </address>
      </Organization>
    </resource>
  </entry>
  <entry>
    <fullUrl value="urn:uuid:5997abdc-b1d2-445c-a708-de89331cb8d3"/>
    <resource>
      <PractitionerRole>
        <id value="5997abdc-b1d2-445c-a708-de89331cb8d3"/>
        <practitioner>
          <reference value="urn:uuid:a14fd062-4d82-4857-ad6a-a5d4568a8388"/>
        </practitioner>
        <organization>
          <reference value="urn:uuid:3a1c3e77-2d3c-49d0-a098-339eca8bc2b5"/>
        </organization>
      </PractitionerRole>
    </resource>
  </entry>
  <entry>
    <fullUrl value="urn:uuid:1703a3dc-84e6-4f7d-a4c8-4062a8bc3558"/>
    <resource>
      <Specimen>
        <id value="1703a3dc-84e6-4f7d-a4c8-4062a8bc3558"/>
        <type>
          <text value="Material declared by Observation.code or non-mandatory"/>
        </type>
        <subject>
          <reference value="urn:uuid:cd46692b-979e-490b-9209-b12ee80d3343"/>
        </subject>
        <collection>
          <collectedDateTime value="2024-08-26T14:20:00+02:00"/>
        </collection>
      </Specimen>
    </resource>
  </entry>
  <entry>
    <fullUrl value="urn:uuid:2b1bd88a-5b86-4178-aa22-39d19bf2c6b9"/>
    <resource>
      <ServiceRequest>
        <id value="2b1bd88a-5b86-4178-aa22-39d19bf2c6b9"/>
        <identifier>
          <value value="26500923622"/>
        </identifier>
        <status value="completed"/>
        <intent value="order"/>
        <code>
          <coding>
            <system value="http://loinc.org"/>
            <code value="6584-7"/>
          </coding>
        </code>
        <subject>
          <reference value="urn:uuid:cd46692b-979e-490b-9209-b12ee80d3343"/>
        </subject>
        <requester>
          <reference value="urn:uuid:5997abdc-b1d2-445c-a708-de89331cb8d3"/>
        </requester>
        <specimen>
          <reference value="urn:uuid:1703a3dc-84e6-4f7d-a4c8-4062a8bc3558"/>
        </specimen>
      </ServiceRequest>
    </resource>
  </entry>
  <entry>
    <fullUrl value="urn:uuid:7a47a32a-e5c0-4e90-a242-69e734979179"/>
    <resource>
      <DiagnosticReport>
        <id value="7a47a32a-e5c0-4e90-a242-69e734979179"/>
        <extension url="http://hl7.org/fhir/5.0/StructureDefinition/extension-DiagnosticReport.composition">
          <valueReference>
            <reference value="urn:uuid:71483cc8-3f36-4f11-9e41-5347bc125188"/>
          </valueReference>
        </extension>
        <identifier>
          <system value="urn:ietf:rfc:3986"/>
          <value value="urn:uuid:6401332d-6012-443f-9690-9331adb23aab"/>
        </identifier>
        <basedOn>
          <reference value="urn:uuid:2b1bd88a-5b86-4178-aa22-39d19bf2c6b9"/>
        </basedOn>
        <status value="final"/>
        <code>
          <coding>
            <system value="http://loinc.org"/>
            <code value="11502-2"/>
            <display value="Laboratory report"/>
          </coding>
        </code>
        <subject>
          <reference value="urn:uuid:cd46692b-979e-490b-9209-b12ee80d3343"/>
        </subject>
        <performer>
          <reference value="urn:uuid:3eb8dba9-dbbf-4692-8445-1e7f6269198e"/>
        </performer>
        <specimen>
          <reference value="urn:uuid:1703a3dc-84e6-4f7d-a4c8-4062a8bc3558"/>
        </specimen>
        <result>
          <reference value="urn:uuid:ae07aeeb-6e01-426c-84c3-1e5a5f98288f"/>
        </result>
      </DiagnosticReport>
    </resource>
  </entry>
</Bundle>