<?xml version="1.0" encoding="UTF-8"?>

<Bundle xmlns="http://hl7.org/fhir">
  <id value="66Doc-HivRecency"/>
  <identifier>
    <system value="urn:ietf:rfc:3986"/>
    <value value="urn:uuid:b9a8b9ee-9157-44af-b46e-8c683c69d6bd"/>
  </identifier>
  <type value="document"/>
  <timestamp value="2025-03-17T12:00:00+02:00"/>
  <entry>
    <fullUrl value="http://test.fhir.ch/r4/Composition/66Comp-HivRecency"/>
    <resource>
      <Composition>
        <id value="66Comp-HivRecency"/>
        <language value="de-CH"/>
        <identifier>
          <system value="urn:ietf:rfc:3986"/>
          <value value="urn:uuid:b9a8b9ee-9157-44af-b46e-8c683c69d6bd"/>
        </identifier>
        <status value="final"/>
        <type>
          <coding>
            <system value="http://snomed.info/sct"/>
            <version value="http://snomed.info/sct/2011000195101"/>
            <code value="4241000179101"/>
            <display value="Laborbericht"/>
          </coding>
          <coding>
            <system value="http://loinc.org"/>
            <code value="11502-2"/>
            <display value="Laboratory report"/>
          </coding>
        </type>
        <subject>
          <reference value="Patient/66Pat"/>
        </subject>
        <date value="2025-03-17T12:00:00+02:00"/>
        <author>
          <reference value="Organization/1Org-Labor"/>
        </author>
        <title value="Laborbericht vom 17.03.2025"/>
        <section>
          <title value="Analyseergebnisse der mikrobiologischen Untersuchung"/>
          <code>
            <coding>
              <system value="http://loinc.org"/>
              <code value="18727-8"/>
              <display value="Serology studies (set)"/>
            </coding>
          </code>
          <entry>
            <reference value="Observation/66Obs-HivRecency"/>
          </entry>
        </section>
      </Composition>
    </resource>
  </entry>
  <entry>
    <fullUrl value="http://test.fhir.ch/r4/DiagnosticReport/66DR-HivRecency"/>
    <resource>
      <DiagnosticReport>
        <id value="66DR-HivRecency"/>
        <extension url="http://hl7.org/fhir/5.0/StructureDefinition/extension-DiagnosticReport.composition">
          <valueReference>
            <reference value="Composition/66Comp-HivRecency"/>
          </valueReference>
        </extension>
        <identifier>
          <system value="urn:ietf:rfc:3986"/>
          <value value="urn:uuid:b9a8b9ee-9157-44af-b46e-8c683c69d6bd"/>
        </identifier>
        <basedOn>
          <reference value="ServiceRequest/66SR-HivRecency"/>
        </basedOn>
        <status value="final"/>
        <code>
          <coding>
            <system value="http://loinc.org"/>
            <code value="11502-2"/>
            <display value="Laboratory report"/>
          </coding>
        </code>
        <subject>
          <reference value="Patient/66Pat"/>
        </subject>
        <performer>
          <reference value="Organization/1Org-Labor"/>
        </performer>
        <specimen>
          <reference value="Specimen/66Spec-HivRecency"/>
        </specimen>
        <result>
          <reference value="Observation/66Obs-HivRecency"/>
        </result>
      </DiagnosticReport>
    </resource>
  </entry>
  <entry>
    <fullUrl value="http://test.fhir.ch/r4/Patient/66Pat"/>
    <resource>
      <Patient>
        <id value="66Pat"/>
        <identifier>
          <system value="urn:oid:2.16.756.5.32"/>
          <value value="7561234567897"/>
        </identifier>
        <name>
          <extension url="http://fhir.ch/ig/ch-elm/StructureDefinition/ch-elm-ext-hiv-code">
            <valueString value="H5"/>
          </extension>
          <family>
            <extension url="http://hl7.org/fhir/StructureDefinition/data-absent-reason">
              <valueCode value="masked"/>
            </extension>
          </family>
          <given>
            <extension url="http://hl7.org/fhir/StructureDefinition/data-absent-reason">
              <valueCode value="masked"/>
            </extension>
          </given>
        </name>
        <gender value="female"/>
        <birthDate value="1981-02-07"/>
        <address>
          <use value="home"/>
          <city value="Carouge"/>
          <state value="GE"/>
          <postalCode value="1227"/>
          <country value="CH">
            <extension url="http://hl7.org/fhir/StructureDefinition/iso21090-SC-coding">
              <valueCoding>
                <system value="urn:iso:std:iso:3166"/>
                <code value="CH"/>
              </valueCoding>
            </extension>
          </country>
        </address>
      </Patient>
    </resource>
  </entry>
  <entry>
    <fullUrl value="http://test.fhir.ch/r4/Observation/66Obs-HivRecency"/>
    <resource>
      <Observation>
        <id value="66Obs-HivRecency"/>
        <status value="final"/>
        <category>
          <coding>
            <system value="http://terminology.hl7.org/CodeSystem/observation-category"/>
            <code value="laboratory"/>
            <display value="Laboratory"/>
          </coding>
        </category>
        <code>
          <coding>
            <system value="http://loinc.org"/>
            <code value="77685-6"/>
            <display value="HIV 1 and 2 IgG Ab [Identifier] in Serum or Plasma by Immunoblot"/>
          </coding>
        </code>
        <subject>
          <reference value="Patient/66Pat"/>
        </subject>
        <effectiveDateTime value="2025-03-15T14:20:00+02:00"/>
        <performer>
          <reference value="Organization/1Org-Labor"/>
        </performer>
        <specimen>
          <reference value="Specimen/66Spec-HivRecency"/>
        </specimen>
        <component>
          <code>
            <coding>
              <system value="http://snomed.info/sct"/>
              <code value="118040000"/>
              <display value="Measurement of Human immunodeficiency virus 1 glycoprotein 120 antibody (procedure)"/>
            </coding>
          </code>
          <valueQuantity>
            <value value="1"/>
            <unit value="[arb'U]"/>
            <system value="http://unitsofmeasure.org"/>
            <code value="[arb'U]"/>
          </valueQuantity>
        </component>
        <component>
          <code>
            <coding>
              <system value="http://snomed.info/sct"/>
              <code value="118044009"/>
              <display value="Measurement of Human immunodeficiency virus 1 glycoprotein 41 antibody (procedure)"/>
            </coding>
          </code>
          <valueQuantity>
            <value value="0.5"/>
            <unit value="[arb'U]"/>
            <system value="http://unitsofmeasure.org"/>
            <code value="[arb'U]"/>
          </valueQuantity>
        </component>
        <component>
          <code>
            <coding>
              <system value="http://snomed.info/sct"/>
              <code value="118052007"/>
              <display value="Measurement of Human immunodeficiency virus 1 protein 31 antibody (procedure)"/>
            </coding>
          </code>
          <valueQuantity>
            <value value="0"/>
            <unit value="[arb'U]"/>
            <system value="http://unitsofmeasure.org"/>
            <code value="[arb'U]"/>
          </valueQuantity>
        </component>
        <component>
          <code>
            <coding>
              <system value="http://snomed.info/sct"/>
              <code value="117749009"/>
              <display value="Measurement of Human immunodeficiency virus 1 protein 24 antibody (procedure)"/>
            </coding>
          </code>
          <valueQuantity>
            <value value="2"/>
            <unit value="[arb'U]"/>
            <system value="http://unitsofmeasure.org"/>
            <code value="[arb'U]"/>
          </valueQuantity>
        </component>
        <component>
          <code>
            <coding>
              <system value="http://snomed.info/sct"/>
              <code value="118047002"/>
              <display value="Measurement of Human immunodeficiency virus 1 protein 17 antibody (procedure)"/>
            </coding>
          </code>
          <valueQuantity>
            <value value="3"/>
            <unit value="[arb'U]"/>
            <system value="http://unitsofmeasure.org"/>
            <code value="[arb'U]"/>
          </valueQuantity>
        </component>
        <component>
          <code>
            <coding>
              <system value="http://snomed.info/sct"/>
              <code value="118062000"/>
              <display value="Measurement of Human immunodeficiency virus 2 glycoprotein 105 antibody (procedure)"/>
            </coding>
          </code>
          <valueQuantity>
            <value value="0"/>
            <unit value="[arb'U]"/>
            <system value="http://unitsofmeasure.org"/>
            <code value="[arb'U]"/>
          </valueQuantity>
        </component>
        <component>
          <code>
            <coding>
              <system value="http://snomed.info/sct"/>
              <code value="118067006"/>
              <display value="Measurement of Human immunodeficiency virus 2 glycoprotein 36 antibody (procedure)"/>
            </coding>
          </code>
          <valueQuantity>
            <value value="4"/>
            <unit value="[arb'U]"/>
            <system value="http://unitsofmeasure.org"/>
            <code value="[arb'U]"/>
          </valueQuantity>
        </component>
      </Observation>
    </resource>
  </entry>
  <entry>
    <fullUrl value="http://test.fhir.ch/r4/Specimen/66Spec-HivRecency"/>
    <resource>
      <Specimen>
        <id value="66Spec-HivRecency"/>
        <subject>
          <reference value="Patient/66Pat"/>
        </subject>
        <collection>
          <collectedDateTime value="2025-03-15T14:20:00+02:00"/>
        </collection>
      </Specimen>
    </resource>
  </entry>
  <entry>
    <fullUrl value="http://test.fhir.ch/r4/ServiceRequest/66SR-HivRecency"/>
    <resource>
      <ServiceRequest>
        <id value="66SR-HivRecency"/>
        <identifier>
          <value value="36500923675"/>
        </identifier>
        <status value="completed"/>
        <intent value="order"/>
        <code>
          <coding>
            <system value="http://loinc.org"/>
            <code value="77685-6"/>
            <display value="HIV 1 and 2 IgG Ab [Identifier] in Serum or Plasma by Immunoblot"/>
          </coding>
        </code>
        <subject>
          <reference value="Patient/66Pat"/>
        </subject>
        <requester>
          <reference value="PractitionerRole/PR-PeterHauser"/>
        </requester>
        <specimen>
          <reference value="Specimen/66Spec-HivRecency"/>
        </specimen>
      </ServiceRequest>
    </resource>
  </entry>
  <entry>
    <fullUrl value="http://test.fhir.ch/r4/Organization/1Org-Labor"/>
    <resource>
      <Organization>
        <id value="1Org-Labor"/>
        <identifier>
          <system value="urn:oid:2.51.1.3"/>
          <value value="7601002331470"/>
        </identifier>
        <name value="SanLab"/>
      </Organization>
    </resource>
  </entry>
  <entry>
    <fullUrl value="http://test.fhir.ch/r4/PractitionerRole/PR-PeterHauser"/>
    <resource>
      <PractitionerRole>
        <id value="PR-PeterHauser"/>
        <practitioner>
          <reference value="Practitioner/Pract-PeterHauser"/>
        </practitioner>
        <organization>
          <reference value="Organization/Org-PeterHauser"/>
        </organization>
      </PractitionerRole>
    </resource>
  </entry>
  <entry>
    <fullUrl value="http://test.fhir.ch/r4/Practitioner/Pract-PeterHauser"/>
    <resource>
      <Practitioner>
        <id value="Pract-PeterHauser"/>
        <identifier>
          <system value="urn:oid:2.51.1.3"/>
          <value value="7601000000514"/>
        </identifier>
        <name>
          <family value="Hauser"/>
          <given value="Peter"/>
        </name>
        <telecom>
          <system value="email"/>
          <value value="peter.hauser@hauserpraxis.ch"/>
        </telecom>
        <telecom>
          <system value="phone"/>
          <value value="+41 79 222 33 44"/>
        </telecom>
      </Practitioner>
    </resource>
  </entry>
  <entry>
    <fullUrl value="http://test.fhir.ch/r4/Organization/Org-PeterHauser"/>
    <resource>
      <Organization>
        <id value="Org-PeterHauser"/>
        <identifier>
          <system value="urn:oid:2.16.756.5.45"/>
          <value value="A74966168"/>
        </identifier>
        <name value="Praxis Dr. Hauser"/>
        <address>
          <line value="Hauptstrasse 10">
            <extension url="http://hl7.org/fhir/StructureDefinition/iso21090-ADXP-streetName">
              <valueString value="Hauptstrasse"/>
            </extension>
            <extension url="http://hl7.org/fhir/StructureDefinition/iso21090-ADXP-houseNumber">
              <valueString value="10"/>
            </extension>
          </line>
          <city value="Solothurn"/>
          <postalCode value="4500"/>
        </address>
      </Organization>
    </resource>
  </entry>
</Bundle>