{
  "resourceType" : "Bundle",
  "id" : "1-1-MedicationTreatmentPlan",
  "meta" : {
    "lastUpdated" : "2020-03-09T12:31:59.738+00:00",
    "profile" : ["http://fhir.ch/ig/ch-emed/StructureDefinition/ch-emed-document-medicationtreatmentplan"]
  },
  "identifier" : {
    "system" : "urn:ietf:rfc:3986",
    "value" : "urn:uuid:7aa20b27-eac0-4fef-a7b9-b10196718b9f"
  },
  "type" : "document",
  "timestamp" : "2011-11-29T11:00:00+01:00",
  "entry" : [{
    "fullUrl" : "http://test.fhir.ch/r4/Composition/1-1-Composition",
    "resource" : {
      "resourceType" : "Composition",
      "id" : "1-1-Composition",
      "meta" : {
        "profile" : ["http://fhir.ch/ig/ch-emed/StructureDefinition/ch-emed-composition-medicationtreatmentplan"]
      },
      "language" : "de-CH",
      "text" : {
        "status" : "generated",
        "div" : "<div xmlns=\"http://www.w3.org/1999/xhtml\" xml:lang=\"de-CH\" lang=\"de-CH\"><a name=\"Composition_1-1-Composition\"> </a><p class=\"res-header-id\"><b>Generated Narrative: Composition 1-1-Composition</b></p><a name=\"1-1-Composition\"> </a><a name=\"hc1-1-Composition\"> </a><a name=\"1-1-Composition-en-US\"> </a><div style=\"display: inline-block; background-color: #d9e0e7; padding: 6px; margin: 4px; border: 1px solid #8da1b4; border-radius: 5px; line-height: 60%\"><p style=\"margin-bottom: 0px\">Language: de-CH</p><p style=\"margin-bottom: 0px\">Profile: <a href=\"StructureDefinition-ch-emed-composition-medicationtreatmentplan.html\">CH EMED Medication Treatment Plan Composition</a></p></div><p><b>identifier</b>: <a href=\"http://terminology.hl7.org/6.1.0/NamingSystem-uri.html\" title=\"As defined by RFC 3986 (http://www.ietf.org/rfc/rfc3986.txt)(with many schemes defined in many RFCs). For OIDs and UUIDs, use the URN form (urn:oid:(note: lowercase) and urn:uuid:). See http://www.ietf.org/rfc/rfc3001.txt and http://www.ietf.org/rfc/rfc4122.txt \r\n\r\nThis oid is used as an identifier II.root to indicate the the extension is an absolute URI (technically, an IRI). Typically, this is used for OIDs and GUIDs. Note that when this OID is used with OIDs and GUIDs, the II.extension should start with urn:oid or urn:uuid: \r\n\r\nNote that this OID is created to aid with interconversion between CDA and FHIR - FHIR uses urn:ietf:rfc:3986 as equivalent to this OID. URIs as identifiers appear more commonly in FHIR.\r\n\r\nThis OID may also be used in CD.codeSystem.\">Uniform Resource Identifier (URI)</a>/urn:uuid:7aa20b27-eac0-4fef-a7b9-b10196718b9f</p><p><b>status</b>: Final</p><p><b>type</b>: <span title=\"Codes:{http://loinc.org 77603-9}, {http://snomed.info/sct 761931002}\">Medication treatment plan.extended Document</span></p><p><b>date</b>: 2011-11-29 11:00:00+0100</p><p><b>author</b>: <a href=\"PractitionerRole-FamilienHausarztAtHausarzt.html\">PractitionerRole</a></p><p><b>title</b>: Therapieentscheid Medikation</p><p><b>confidentiality</b>: normal</p></div>"
      },
      "identifier" : {
        "system" : "urn:ietf:rfc:3986",
        "value" : "urn:uuid:7aa20b27-eac0-4fef-a7b9-b10196718b9f"
      },
      "status" : "final",
      "type" : {
        "coding" : [{
          "system" : "http://loinc.org",
          "code" : "77603-9",
          "display" : "Medication treatment plan.extended Document"
        },
        {
          "system" : "http://snomed.info/sct",
          "code" : "761931002",
          "display" : "Medication treatment plan report (record artifact)"
        }]
      },
      "subject" : {
        "reference" : "Patient/MonikaWegmueller"
      },
      "date" : "2011-11-29T11:00:00+01:00",
      "author" : [{
        "reference" : "PractitionerRole/FamilienHausarztAtHausarzt"
      }],
      "title" : "Therapieentscheid Medikation",
      "confidentiality" : "N",
      "_confidentiality" : {
        "extension" : [{
          "url" : "http://fhir.ch/ig/ch-core/StructureDefinition/ch-ext-epr-confidentialitycode",
          "valueCodeableConcept" : {
            "coding" : [{
              "system" : "http://snomed.info/sct",
              "code" : "17621005",
              "display" : "Normal (qualifier value)"
            }]
          }
        }]
      },
      "section" : [{
        "title" : "Medikamentöser Behandlungsplan",
        "code" : {
          "coding" : [{
            "system" : "http://loinc.org",
            "code" : "77604-7",
            "display" : "Medication treatment plan.brief Document"
          }]
        },
        "text" : {
          "status" : "generated",
          "div" : "<div xmlns=\"http://www.w3.org/1999/xhtml\"><table><thead><tr><th>Präpartename</th><th>Wirkstoffname</th><th>Galenische Form</th><th>Dosis pro Einheit</th><th>Dos.Morgen</th><th>Dos.Mittag</th><th>Dos.Abend</th><th>Dos.Nacht</th><th>Verabreichungsweg</th><th>Kommentar</th><th>Anwendungsdauer</th><th>Behandlungsgrund</th></tr></thead><tbody><tr id=\"mtp.1\"><td id=\"mtp.1.brandedmedication\">Triatec</td><td id=\"mtp.1.ingredient\">Ramipril</td><td id=\"mtp.1.packageform\">Tbl</td><td id=\"mtp.1.dosequantity\">2.5 mg</td><td id=\"mtp.1.dosagemorning\">0.5</td><td id=\"mtp.1.dosagelunch\">0</td><td id=\"mtp.1.dosageevening\">0</td><td id=\"mtp.1.dosagenight\">0</td><td id=\"mtp.1.routecode\">oral</td><td id=\"mtp.1.note\"/><td id=\"mtp.1.datefromto\"/><td id=\"mtp.1.reason\">Bluthochdruck</td></tr></tbody></table></div>"
        },
        "entry" : [{
          "reference" : "MedicationStatement/1-1-MedStatTriatec"
        }]
      }]
    }
  },
  {
    "fullUrl" : "http://test.fhir.ch/r4/Patient/MonikaWegmueller",
    "resource" : {
      "resourceType" : "Patient",
      "id" : "MonikaWegmueller",
      "meta" : {
        "profile" : ["http://fhir.ch/ig/ch-core/StructureDefinition/ch-core-patient-epr"]
      },
      "text" : {
        "status" : "generated",
        "div" : "<div xmlns=\"http://www.w3.org/1999/xhtml\"><a name=\"Patient_MonikaWegmueller\"> </a><p class=\"res-header-id\"><b>Generated Narrative: Patient MonikaWegmueller</b></p><a name=\"MonikaWegmueller\"> </a><a name=\"hcMonikaWegmueller\"> </a><a name=\"MonikaWegmueller-en-US\"> </a><p style=\"border: 1px #661aff solid; background-color: #e6e6ff; padding: 10px;\">Monika Wegmüller  Female, DoB: 1943-05-15 ( Medical record number)</p><hr/><table class=\"grid\"><tr><td style=\"background-color: #f3f5da\" title=\"Ways to contact the Patient\">Contact Detail</td><td colspan=\"3\">Wiesenstr. 12 Zürich 8003 CH </td></tr></table></div>"
      },
      "identifier" : [{
        "type" : {
          "coding" : [{
            "system" : "http://terminology.hl7.org/CodeSystem/v2-0203",
            "code" : "MR"
          }]
        },
        "system" : "urn:oid:2.999.1",
        "value" : "11111111"
      }],
      "name" : [{
        "family" : "Wegmüller",
        "given" : ["Monika"]
      }],
      "gender" : "female",
      "birthDate" : "1943-05-15",
      "address" : [{
        "line" : ["Wiesenstr. 12"],
        "city" : "Zürich",
        "postalCode" : "8003",
        "country" : "CH"
      }]
    }
  },
  {
    "fullUrl" : "http://test.fhir.ch/r4/PractitionerRole/FamilienHausarztAtHausarzt",
    "resource" : {
      "resourceType" : "PractitionerRole",
      "id" : "FamilienHausarztAtHausarzt",
      "meta" : {
        "profile" : ["http://fhir.ch/ig/ch-emed/StructureDefinition/ch-emed-practitionerrole"]
      },
      "text" : {
        "status" : "generated",
        "div" : "<div xmlns=\"http://www.w3.org/1999/xhtml\"><a name=\"PractitionerRole_FamilienHausarztAtHausarzt\"> </a><p class=\"res-header-id\"><b>Generated Narrative: PractitionerRole FamilienHausarztAtHausarzt</b></p><a name=\"FamilienHausarztAtHausarzt\"> </a><a name=\"hcFamilienHausarztAtHausarzt\"> </a><a name=\"FamilienHausarztAtHausarzt-en-US\"> </a><p><b>practitioner</b>: <a href=\"Practitioner-FamilienHausarzt.html\">Practitioner Familien Hausarzt </a></p><p><b>organization</b>: <a href=\"Organization-Hausarzt.html\">Organization Hausarzt</a></p></div>"
      },
      "practitioner" : {
        "reference" : "Practitioner/FamilienHausarzt"
      },
      "organization" : {
        "reference" : "Organization/Hausarzt"
      }
    }
  },
  {
    "fullUrl" : "http://test.fhir.ch/r4/Practitioner/FamilienHausarzt",
    "resource" : {
      "resourceType" : "Practitioner",
      "id" : "FamilienHausarzt",
      "meta" : {
        "profile" : ["http://fhir.ch/ig/ch-emed/StructureDefinition/ch-emed-practitioner"]
      },
      "text" : {
        "status" : "generated",
        "div" : "<div xmlns=\"http://www.w3.org/1999/xhtml\"><a name=\"Practitioner_FamilienHausarzt\"> </a><p class=\"res-header-id\"><b>Generated Narrative: Practitioner FamilienHausarzt</b></p><a name=\"FamilienHausarzt\"> </a><a name=\"hcFamilienHausarzt\"> </a><a name=\"FamilienHausarzt-en-US\"> </a><p><b>identifier</b>: <a href=\"https://www.gs1.org/standards/id-keys/gln\" title=\"Global Location Number\">GLN</a>/7601000234438</p><p><b>name</b>: Familien Hausarzt </p></div>"
      },
      "identifier" : [{
        "system" : "urn:oid:2.51.1.3",
        "value" : "7601000234438"
      }],
      "name" : [{
        "family" : "Hausarzt",
        "given" : ["Familien"]
      }]
    }
  },
  {
    "fullUrl" : "http://test.fhir.ch/r4/Organization/Hausarzt",
    "resource" : {
      "resourceType" : "Organization",
      "id" : "Hausarzt",
      "meta" : {
        "profile" : ["http://fhir.ch/ig/ch-emed/StructureDefinition/ch-emed-organization"]
      },
      "text" : {
        "status" : "generated",
        "div" : "<div xmlns=\"http://www.w3.org/1999/xhtml\"><a name=\"Organization_Hausarzt\"> </a><p class=\"res-header-id\"><b>Generated Narrative: Organization Hausarzt</b></p><a name=\"Hausarzt\"> </a><a name=\"hcHausarzt\"> </a><a name=\"Hausarzt-en-US\"> </a><p><b>identifier</b>: <a href=\"https://www.gs1.org/standards/id-keys/gln\" title=\"Global Location Number\">GLN</a>/7601000234438</p><p><b>name</b>: Hausarzt</p><p><b>address</b>: Krankenstrasse 2 Zürich 8005 CH </p></div>"
      },
      "identifier" : [{
        "system" : "urn:oid:2.51.1.3",
        "value" : "7601000234438"
      }],
      "name" : "Hausarzt",
      "address" : [{
        "line" : ["Krankenstrasse 2"],
        "city" : "Zürich",
        "postalCode" : "8005",
        "country" : "CH"
      }]
    }
  },
  {
    "fullUrl" : "http://test.fhir.ch/r4/MedicationStatement/1-1-MedStatTriatec",
    "resource" : {
      "resourceType" : "MedicationStatement",
      "id" : "1-1-MedStatTriatec",
      "meta" : {
        "profile" : ["http://fhir.ch/ig/ch-emed/StructureDefinition/ch-emed-medicationstatement"]
      },
      "text" : {
        "status" : "generated",
        "div" : "<div xmlns=\"http://www.w3.org/1999/xhtml\"><a name=\"MedicationStatement_1-1-MedStatTriatec\"> </a><p class=\"res-header-id\"><b>Generated Narrative: MedicationStatement 1-1-MedStatTriatec</b></p><a name=\"1-1-MedStatTriatec\"> </a><a name=\"hc1-1-MedStatTriatec\"> </a><a name=\"1-1-MedStatTriatec-en-US\"> </a><p><b>identifier</b>: <a href=\"http://terminology.hl7.org/6.1.0/NamingSystem-uri.html\" title=\"As defined by RFC 3986 (http://www.ietf.org/rfc/rfc3986.txt)(with many schemes defined in many RFCs). For OIDs and UUIDs, use the URN form (urn:oid:(note: lowercase) and urn:uuid:). See http://www.ietf.org/rfc/rfc3001.txt and http://www.ietf.org/rfc/rfc4122.txt \r\n\r\nThis oid is used as an identifier II.root to indicate the the extension is an absolute URI (technically, an IRI). Typically, this is used for OIDs and GUIDs. Note that when this OID is used with OIDs and GUIDs, the II.extension should start with urn:oid or urn:uuid: \r\n\r\nNote that this OID is created to aid with interconversion between CDA and FHIR - FHIR uses urn:ietf:rfc:3986 as equivalent to this OID. URIs as identifiers appear more commonly in FHIR.\r\n\r\nThis OID may also be used in CD.codeSystem.\">Uniform Resource Identifier (URI)</a>/urn:uuid:7aa20b27-eac0-4fef-a7b9-b10196718b9f</p><p><b>status</b>: Active</p><p><b>medication</b>: <a href=\"#hc1-1-MedStatTriatec/Triatec\">Medication TRIATEC Tabl 2.5 mg 20 Stk</a></p><p><b>subject</b>: <a href=\"Patient-MonikaWegmueller.html\">Monika Wegmüller  Female, DoB: 1943-05-15 ( Medical record number)</a></p><p><b>dateAsserted</b>: 2011-11-29 11:00:00+0100</p><p><b>informationSource</b>: <a href=\"PractitionerRole-FamilienHausarztAtHausarzt.html\">PractitionerRole</a></p><p><b>reasonCode</b>: <span title=\"Codes:\">Bluthochdruck</span></p><blockquote><p><b>dosage</b></p><p><b>patientInstruction</b>: -</p><p><b>timing</b>: , ?ngen-6?</p><p><b>route</b>: <span title=\"Codes:{urn:oid:0.4.0.127.0.16.1.1.2.1 20053000}\">zum Einnehmen</span></p><p><b>method</b>: <span title=\"Codes:{urn:oid:0.4.0.127.0.16.1.1.2.1 0019}\">Schlucken</span></p><h3>DoseAndRates</h3><table class=\"grid\"><tr><td style=\"display: none\">-</td><td><b>Dose[x]</b></td></tr><tr><td style=\"display: none\">*</td><td>0.5 Tablet (unit of presentation)<span style=\"background: LightGoldenRodYellow\"> (Details: SNOMED CT  code732936001 = 'Tablet (unit of presentation)')</span></td></tr></table></blockquote><hr/><blockquote><p class=\"res-header-id\"><b>Generated Narrative: Medication  #Triatec</b></p><a name=\"1-1-MedStatTriatec/Triatec\"> </a><a name=\"hc1-1-MedStatTriatec/Triatec\"> </a><a name=\"1-1-MedStatTriatec/Triatec-en-US\"> </a><p><b>code</b>: <span title=\"Codes:{urn:oid:2.51.1.1 7680538751228}\">TRIATEC Tabl 2.5 mg</span></p><p><b>form</b>: <span title=\"Codes:{urn:oid:0.4.0.127.0.16.1.1.2.1 10219000}\">Tablette</span></p><p><b>amount</b>: 20 Tablet (unit of presentation)<span style=\"background: LightGoldenRodYellow\"> (Details: SNOMED CT  code732936001 = 'Tablet (unit of presentation)')</span>/1 Package - unit of product usage (qualifier value)<span style=\"background: LightGoldenRodYellow\"> (Details: SNOMED CT  code1681000175101 = 'Package - unit of product usage')</span></p><h3>Ingredients</h3><table class=\"grid\"><tr><td style=\"display: none\">-</td><td><b>Item[x]</b></td><td><b>Strength</b></td></tr><tr><td style=\"display: none\">*</td><td><span title=\"Codes:{http://snomed.info/sct 386872004}\">Ramipril</span></td><td>2.5 milligram<span style=\"background: LightGoldenRodYellow\"> (Details: UCUM  codemg = 'mg')</span>/1 Tablet (unit of presentation)<span style=\"background: LightGoldenRodYellow\"> (Details: SNOMED CT  code732936001 = 'Tablet (unit of presentation)')</span></td></tr></table></blockquote></div>"
      },
      "contained" : [{
        "resourceType" : "Medication",
        "id" : "Triatec",
        "meta" : {
          "profile" : ["http://fhir.ch/ig/ch-emed/StructureDefinition/ch-emed-medication"]
        },
        "code" : {
          "coding" : [{
            "system" : "urn:oid:2.51.1.1",
            "code" : "7680538751228",
            "display" : "TRIATEC Tabl 2.5 mg 20 Stk"
          }],
          "text" : "TRIATEC Tabl 2.5 mg"
        },
        "form" : {
          "coding" : [{
            "system" : "urn:oid:0.4.0.127.0.16.1.1.2.1",
            "code" : "10219000",
            "display" : "Tablet"
          }],
          "text" : "Tablette"
        },
        "amount" : {
          "numerator" : {
            "value" : 20,
            "unit" : "Tablet (unit of presentation)",
            "system" : "http://snomed.info/sct",
            "code" : "732936001"
          },
          "denominator" : {
            "value" : 1,
            "unit" : "Package - unit of product usage (qualifier value)",
            "system" : "http://snomed.info/sct",
            "code" : "1681000175101"
          }
        },
        "ingredient" : [{
          "itemCodeableConcept" : {
            "coding" : [{
              "system" : "http://snomed.info/sct",
              "code" : "386872004",
              "display" : "Ramipril (substance)"
            }],
            "text" : "Ramipril"
          },
          "strength" : {
            "numerator" : {
              "value" : 2.5,
              "unit" : "milligram",
              "system" : "http://unitsofmeasure.org",
              "code" : "mg"
            },
            "denominator" : {
              "value" : 1,
              "unit" : "Tablet (unit of presentation)",
              "system" : "http://snomed.info/sct",
              "code" : "732936001"
            }
          }
        }]
      }],
      "identifier" : [{
        "system" : "urn:ietf:rfc:3986",
        "value" : "urn:uuid:7aa20b27-eac0-4fef-a7b9-b10196718b9f"
      }],
      "status" : "active",
      "medicationReference" : {
        "reference" : "#Triatec"
      },
      "subject" : {
        "reference" : "Patient/MonikaWegmueller"
      },
      "dateAsserted" : "2011-11-29T11:00:00+01:00",
      "informationSource" : {
        "reference" : "PractitionerRole/FamilienHausarztAtHausarzt"
      },
      "reasonCode" : [{
        "text" : "Bluthochdruck"
      }],
      "dosage" : [{
        "patientInstruction" : "-",
        "timing" : {
          "repeat" : {
            "boundsPeriod" : {
              "start" : "2011-11-29"
            },
            "when" : ["MORN"]
          }
        },
        "route" : {
          "coding" : [{
            "system" : "urn:oid:0.4.0.127.0.16.1.1.2.1",
            "code" : "20053000",
            "display" : "Oral use"
          }],
          "text" : "zum Einnehmen"
        },
        "method" : {
          "coding" : [{
            "system" : "urn:oid:0.4.0.127.0.16.1.1.2.1",
            "code" : "0019",
            "display" : "Swallowing"
          }],
          "text" : "Schlucken"
        },
        "doseAndRate" : [{
          "doseQuantity" : {
            "value" : 0.5,
            "unit" : "Tablet (unit of presentation)",
            "system" : "http://snomed.info/sct",
            "code" : "732936001"
          }
        }]
      }]
    }
  }]
}