<?xml version="1.0" encoding="UTF-8"?>

<Bundle xmlns="http://hl7.org/fhir">
  <id value="UC1-Document"/>
  <language value="de-CH"/>
  <identifier>
    <system value="urn:ietf:rfc:3986"/>
    <value value="urn:uuid:7afc1e97-67f8-49a8-91f5-46af596d0609"/>
  </identifier>
  <type value="document"/>
  <timestamp value="2025-02-05T10:34:00+01:00"/>
  <entry>
    <fullUrl value="http://test.fhir.ch/r4/Composition/UC1-Composition"/>
    <resource>
      <Composition>
        <id value="UC1-Composition"/>
        <language value="de-CH"/>
        <text>
          <status value="generated"/><div xmlns="http://www.w3.org/1999/xhtml" xml:lang="de-CH" lang="de-CH"><a name="Composition_UC1-Composition"> </a><p class="res-header-id"><b>Generated Narrative: Composition UC1-Composition</b></p><a name="UC1-Composition"> </a><a name="hcUC1-Composition"> </a><a name="UC1-Composition-en-US"> </a><div style="display: inline-block; background-color: #d9e0e7; padding: 6px; margin: 4px; border: 1px solid #8da1b4; border-radius: 5px; line-height: 60%"><p style="margin-bottom: 0px">Language: de-CH</p></div><p><b>identifier</b>: <a href="http://terminology.hl7.org/6.2.0/NamingSystem-uri.html" title="As defined by RFC 3986 (http://www.ietf.org/rfc/rfc3986.txt)(with many schemes defined in many RFCs). For OIDs and UUIDs, use the URN form (urn:oid:(note: lowercase) and urn:uuid:). See http://www.ietf.org/rfc/rfc3001.txt and http://www.ietf.org/rfc/rfc4122.txt 

This oid is used as an identifier II.root to indicate the the extension is an absolute URI (technically, an IRI). Typically, this is used for OIDs and GUIDs. Note that when this OID is used with OIDs and GUIDs, the II.extension should start with urn:oid or urn:uuid: 

Note that this OID is created to aid with interconversion between CDA and FHIR - FHIR uses urn:ietf:rfc:3986 as equivalent to this OID. URIs as identifiers appear more commonly in FHIR.

This OID may also be used in CD.codeSystem.">Uniform Resource Identifier (URI)</a>/urn:uuid:7afc1e97-67f8-49a8-91f5-46af596d0609</p><p><b>status</b>: Final</p><p><b>type</b>: <span title="Codes:{http://snomed.info/sct 736377005}">Maternity care plan (record artifact)</span></p><p><b>date</b>: 2025-02-05 10:34:00+0100</p><p><b>author</b>: <a href="PractitionerRole-UC1-PetraSectionataAtFrauenzimmer.html">PractitionerRole Arzt / Ärztin</a></p><p><b>title</b>: Schwangerschaftspass</p><p><b>confidentiality</b>: normal</p></div>
        </text>
        <identifier>
          <system value="urn:ietf:rfc:3986"/>
          <value value="urn:uuid:7afc1e97-67f8-49a8-91f5-46af596d0609"/>
        </identifier>
        <status value="final"/>
        <type>
          <coding>
            <system value="http://snomed.info/sct"/>
            <code value="736377005"/>
            <display value="Maternity care plan (record artifact)"/>
          </coding>
        </type>
        <subject>
          <reference value="Patient/UC1-KatrinKinderlieb"/>
        </subject>
        <date value="2025-02-05T10:34:00+01:00"/>
        <author>
          <reference value="PractitionerRole/UC1-PetraSectionataAtFrauenzimmer"/>
        </author>
        <title value="Schwangerschaftspass"/>
        <confidentiality value="N">
          <extension url="http://fhir.ch/ig/ch-core/StructureDefinition/ch-ext-epr-confidentialitycode">
            <valueCodeableConcept>
              <coding>
                <system value="http://snomed.info/sct"/>
                <code value="17621005"/>
                <display value="Normal (qualifier value)"/>
              </coding>
            </valueCodeableConcept>
          </extension>
        </confidentiality>
        <section>
          <title value="Stammdaten"/>
          <code>
            <coding>
              <system value="http://loinc.org"/>
              <code value="86638-4"/>
              <display value="Patient demographic and administrative information panel [FPAR]"/>
            </coding>
          </code>
          <section>
            <title value="Versicherung"/>
            <code>
              <coding>
                <system value="http://loinc.org"/>
                <code value="35525-5"/>
                <display value="Clinical trial protocol Financing and insurance section"/>
              </coding>
            </code>
            <text>
              <status value="additional"/><div xmlns="http://www.w3.org/1999/xhtml"><p><b>Grundversicherung:</b> Sanitas</p><p><b>Zusatzversicherung:</b> Helsana</p></div>
            </text>
            <entry>
              <reference value="Coverage/UC1-BasicInsurance"/>
            </entry>
            <entry>
              <reference value="Coverage/UC1-SupplementaryInsurance"/>
            </entry>
          </section>
          <section>
            <title value="Elternteil"/>
            <code>
              <coding>
                <system value="http://loinc.org"/>
                <code value="54136-7"/>
                <display value="Relationship to patient Family member"/>
              </coding>
            </code>
            <text>
              <status value="additional"/><div xmlns="http://www.w3.org/1999/xhtml"><p><b>Biologischer Vater:</b> Pierre Kinderlieb</p></div>
            </text>
            <entry>
              <reference value="RelatedPerson/UC1-RelatedPerson-BiologicalFather"/>
            </entry>
          </section>
          <section>
            <title value="Behandelnde Leistungserbringende"/>
            <code>
              <coding>
                <system value="http://loinc.org"/>
                <code value="85847-2"/>
                <display value="Patient Care team information"/>
              </coding>
            </code>
            <text>
              <status value="additional"/><div xmlns="http://www.w3.org/1999/xhtml"><p><b>Gynäkologin:</b> Petra Sectionata, Frauenzimmer</p><p><b>Hausärztin/Hausarzt:</b> keine</p></div>
            </text>
            <entry>
              <reference value="PractitionerRole/UC1-PetraSectionataAtFrauenzimmer"/>
            </entry>
          </section>
        </section>
        <section>
          <title value="Serologische- &amp; Laboruntersuchungen"/>
          <code>
            <coding>
              <system value="http://loinc.org"/>
              <code value="26436-6"/>
              <display value="Laboratory studies (set)"/>
            </coding>
          </code>
          <section>
            <title value="Blutbank-Untersuchungen"/>
            <code>
              <coding>
                <system value="http://loinc.org"/>
                <code value="18717-9"/>
                <display value="Blood bank studies (set)"/>
              </coding>
            </code>
            <text>
              <status value="generated"/><div xmlns="http://www.w3.org/1999/xhtml"><ul><li>Blutgruppe: AB Rh+, 05.02.2025</li><li>Fetaler RhD: Rh+, 05.02.2025</li></ul></div>
            </text>
            <entry>
              <reference value="Observation/UC1-BloodGroup-20250205"/>
            </entry>
            <entry>
              <reference value="Observation/UC1-FetalRhD-20250205"/>
            </entry>
          </section>
          <section>
            <title value="Klinische Chemie"/>
            <code>
              <coding>
                <system value="http://loinc.org"/>
                <code value="18719-5"/>
                <display value="Chemistry studies (set)"/>
              </coding>
            </code>
            <text>
              <status value="generated"/><div xmlns="http://www.w3.org/1999/xhtml"><ul><li>Kreatinin: 1.2 mg/dl (hoch), 05.02.2025</li><li>Harnsäure: 6.3 mg/dl (hoch), 05.02.2025</li><li>GFR: 54 ml/min, 05.02.2025</li><li>GGT: 43 U/l, 05.02.2025</li><li>GOT/AST/ASAT: 43 U/l, 05.02.2025</li><li>ALAT: 98 U/l, 05.02.2025</li><li>AP: 109 U/l, 05.02.2025</li><li>Glucose: 8.1 mmol/l, 05.02.2025</li></ul></div>
            </text>
            <entry>
              <reference value="Observation/UC1-Creatinine-20250205"/>
            </entry>
            <entry>
              <reference value="Observation/UC1-Urate-20250205"/>
            </entry>
            <entry>
              <reference value="Observation/UC1-GFR-20250205"/>
            </entry>
            <entry>
              <reference value="Observation/UC1-GGT-20250205"/>
            </entry>
            <entry>
              <reference value="Observation/UC1-AST-20250205"/>
            </entry>
            <entry>
              <reference value="Observation/UC1-ALAT-20250205"/>
            </entry>
            <entry>
              <reference value="Observation/UC1-AP-20250205"/>
            </entry>
            <entry>
              <reference value="Observation/UC1-GlucoseLab-20250205"/>
            </entry>
          </section>
          <section>
            <title value="Hämatologie"/>
            <code>
              <coding>
                <system value="http://loinc.org"/>
                <code value="18723-7"/>
                <display value="Hematology studies (set)"/>
              </coding>
            </code>
            <text>
              <status value="generated"/><div xmlns="http://www.w3.org/1999/xhtml"><ul><li>Hkt: 46 %, 05.02.2025</li><li>Thrombozyten: 130, 05.02.2025</li></ul></div>
            </text>
            <entry>
              <reference value="Observation/UC1-Hematocrit-20250205"/>
            </entry>
            <entry>
              <reference value="Observation/UC1-Platelets-20250205"/>
            </entry>
          </section>
        </section>
        <section>
          <title value="Schwangerschaftsverlauf"/>
          <code>
            <coding>
              <system value="http://loinc.org"/>
              <code value="57059-8"/>
              <display value="Pregnancy visit summary note Narrative"/>
            </coding>
          </code>
          <text>
            <status value="generated"/><div xmlns="http://www.w3.org/1999/xhtml"><b>Untersuchung vom 05.02.2025</b><ul><li>SSW: 37</li><li>Gewicht: 82.0 kg</li><li>Gewichtszunahme: 12.5 kg</li><li>Blutdruck: 160/100 mmHg</li><li>Urin: Zucker positiv, Nitrit positiv</li><li>Bauchumfang: 101 cm</li><li>Fundusstand: Rb/0</li><li>Vaginalbefund: bland</li><li>Kindsbewegung: normal</li><li>Herztöne: 162 /min</li><li>Kindslage: Schädellage</li></ul><b>Untersuchung vom 23.01.2025</b><ul><li>SSW: 35</li><li>Gewicht: 80.6 kg</li><li>Gewichtszunahme: 11.1 kg</li><li>Blutdruck: 120/80 mmHg</li><li>Nächste Kontrolle am: 05.02.2025</li></ul></div>
          </text>
          <entry>
            <reference value="Encounter/UC1-EncounterMother20250205"/>
          </entry>
          <entry>
            <reference value="Encounter/UC1-EncounterMother20250123"/>
          </entry>
          <entry>
            <reference value="Encounter/UC1-EncounterChild20250205"/>
          </entry>
          <entry>
            <reference value="Encounter/UC1-EncounterChild20250123"/>
          </entry>
          <entry>
            <reference value="Observation/UC1-GestationalAgeInDays-20250205"/>
          </entry>
          <entry>
            <reference value="Observation/UC1-GestationalAgeInDays-20250123"/>
          </entry>
          <entry>
            <reference value="Observation/UC1-BodyWeight-20250205"/>
          </entry>
          <entry>
            <reference value="Observation/UC1-BodyWeight-20250123"/>
          </entry>
          <entry>
            <reference value="Observation/UC1-WeightGain-20250205"/>
          </entry>
          <entry>
            <reference value="Observation/UC1-WeightGain-20250123"/>
          </entry>
          <entry>
            <reference value="Observation/UC1-BloodPressure-20250205"/>
          </entry>
          <entry>
            <reference value="Observation/UC1-UrineFinding-20250205"/>
          </entry>
          <entry>
            <reference value="Observation/UC1-AbdominalCircumference-20250205"/>
          </entry>
          <entry>
            <reference value="Observation/UC1-FundusHeight-20250205"/>
          </entry>
          <entry>
            <reference value="Observation/UC1-VaginaFeature-20250205"/>
          </entry>
          <entry>
            <reference value="Observation/UC1-BloodPressure-20250123"/>
          </entry>
          <entry>
            <reference value="Observation/UC1-FetalMovement-20250205"/>
          </entry>
          <entry>
            <reference value="Observation/UC1-FetalHeartFeature-20250205"/>
          </entry>
          <entry>
            <reference value="Observation/UC1-FetalPosition-20250205"/>
          </entry>
        </section>
      </Composition>
    </resource>
  </entry>
  <entry>
    <fullUrl value="http://test.fhir.ch/r4/Patient/UC1-KatrinKinderlieb"/>
    <resource>
      <Patient>
        <id value="UC1-KatrinKinderlieb"/>
        <language value="de-CH"/>
        <text>
          <status value="generated"/><div xmlns="http://www.w3.org/1999/xhtml" xml:lang="de-CH" lang="de-CH"><a name="Patient_UC1-KatrinKinderlieb"> </a><p class="res-header-id"><b>Generated Narrative: Patient UC1-KatrinKinderlieb</b></p><a name="UC1-KatrinKinderlieb"> </a><a name="hcUC1-KatrinKinderlieb"> </a><a name="UC1-KatrinKinderlieb-en-US"> </a><div style="display: inline-block; background-color: #d9e0e7; padding: 6px; margin: 4px; border: 1px solid #8da1b4; border-radius: 5px; line-height: 60%"><p style="margin-bottom: 0px">Language: de-CH</p></div><p style="border: 1px #661aff solid; background-color: #e6e6ff; padding: 10px;">Frau Katrin Kinderlieb Female, DoB: 1986-01-18 ( urn:oid:2.16.756.5.30.1.123.100.1.1.1#80756015090002647590)</p><hr/><table class="grid"><tr><td style="background-color: #f3f5da" title="Ways to contact the Patient">Contact Detail</td><td colspan="3"><ul><li><a href="mailto:katrin.kinderlieb@example.com">katrin.kinderlieb@example.com</a></li><li><a href="tel:+41333333333">+41 33 333 33 33</a></li><li><a href="tel:+41791234567">+41 79 123 45 67</a></li><li><a href="tel:+41454545454">+41 45 454 54 54</a></li><li>Musterstrasse 1 Zürich 8000 Schweiz </li></ul></td></tr><tr><td style="background-color: #f3f5da" title="Language spoken">Language:</td><td colspan="3"><span title="Codes:{urn:ietf:bcp:47 de-CH}">German (Switzerland)</span> (preferred)</td></tr><tr><td style="background-color: #f3f5da" title="Nominated Contact: Emergency Contact">Emergency Contact:</td><td colspan="3"><ul><li>Pierre Kinderlieb </li><li><a href="tel:+41333333333">+41 33 333 33 33</a></li><li><a href="tel:+41791112233">+41 79 111 22 33</a></li><li><a href="tel:+41464646464">+41 46 464 64 64</a></li></ul></td></tr><tr><td style="background-color: #f3f5da" title="Nominated Contact: Emergency Contact">Emergency Contact:</td><td colspan="3"><ul><li>Anna Kinderlieb </li><li><a href="tel:+41888888888">+41 88 888 88 88</a></li></ul></td></tr><tr><td style="background-color: #f3f5da" title="Patient Links">Links:</td><td colspan="3"><ul><li>Also see: <a href="RelatedPerson-UC1-RelatedPerson-Mother.html">RelatedPerson: relationship = Natural mother (person)</a></li></ul></td></tr><tr><td style="background-color: #f3f5da" title="The pronouns to use when referring to an individual in verbal or written communication.">Individual Pronouns:</td><td colspan="3"><ul><li>value: <span title="Codes:{http://loinc.org LA29519-8}">she/her/her/hers/herself</span></li></ul></td></tr><tr><td style="background-color: #f3f5da" title="The patient's legal status as citizen of a country.">Patient Citizenship:</td><td colspan="3"><ul><li>code: <span title="Codes:{urn:iso:std:iso:3166 CH}">Switzerland</span></li></ul></td></tr></table></div>
        </text>
        <extension url="http://hl7.org/fhir/StructureDefinition/patient-citizenship">
          <extension url="code">
            <valueCodeableConcept>
              <coding>
                <system value="urn:iso:std:iso:3166"/>
                <code value="CH"/>
                <display value="Switzerland"/>
              </coding>
            </valueCodeableConcept>
          </extension>
        </extension>
        <extension url="http://hl7.org/fhir/StructureDefinition/individual-pronouns">
          <extension url="value">
            <valueCodeableConcept>
              <coding>
                <system value="http://loinc.org"/>
                <code value="LA29519-8"/>
                <display value="she/her/her/hers/herself"/>
              </coding>
            </valueCodeableConcept>
          </extension>
        </extension>
        <identifier>
          <system value="urn:oid:2.16.756.5.30.1.123.100.1.1.1"/>
          <value value="80756015090002647590"/>
        </identifier>
        <name>
          <text value="Frau Katrin Kinderlieb"/>
          <family value="Kinderlieb"/>
          <given value="Katrin"/>
          <prefix value="Frau"/>
        </name>
        <telecom>
          <system value="email"/>
          <value value="katrin.kinderlieb@example.com"/>
        </telecom>
        <telecom>
          <system value="phone"/>
          <value value="+41 33 333 33 33"/>
          <use value="home"/>
        </telecom>
        <telecom>
          <system value="phone"/>
          <value value="+41 79 123 45 67"/>
          <use value="mobile"/>
        </telecom>
        <telecom>
          <system value="phone"/>
          <value value="+41 45 454 54 54"/>
          <use value="work"/>
        </telecom>
        <gender value="female"/>
        <birthDate value="1986-01-18"/>
        <address>
          <line value="Musterstrasse 1"/>
          <city value="Zürich"/>
          <postalCode value="8000"/>
          <country value="Schweiz"/>
        </address>
        <contact>
          <extension url="http://fhir.ch/ig/ch-epreg/StructureDefinition/ch-epreg-ext-note">
            <valueString value="Ehemann von Katrin Kinderlieb und biologischer Vater des Kindes"/>
          </extension>
          <extension url="http://fhir.ch/ig/ch-epreg/StructureDefinition/ch-epreg-ext-primary-contact">
            <valueBoolean value="true"/>
          </extension>
          <relationship>
            <coding>
              <system value="http://terminology.hl7.org/CodeSystem/v2-0131"/>
              <code value="C"/>
              <display value="Emergency Contact"/>
            </coding>
          </relationship>
          <name>
            <family value="Kinderlieb"/>
            <given value="Pierre"/>
          </name>
          <telecom>
            <system value="phone"/>
            <value value="+41 33 333 33 33"/>
            <use value="home"/>
          </telecom>
          <telecom>
            <system value="phone"/>
            <value value="+41 79 111 22 33"/>
            <use value="mobile"/>
          </telecom>
          <telecom>
            <system value="phone"/>
            <value value="+41 46 464 64 64"/>
            <use value="work"/>
          </telecom>
        </contact>
        <contact>
          <extension url="http://fhir.ch/ig/ch-epreg/StructureDefinition/ch-epreg-ext-note">
            <valueString value="Mutter von Katrin Kinderlieb"/>
          </extension>
          <relationship>
            <coding>
              <system value="http://terminology.hl7.org/CodeSystem/v2-0131"/>
              <code value="C"/>
              <display value="Emergency Contact"/>
            </coding>
          </relationship>
          <name>
            <family value="Kinderlieb"/>
            <given value="Anna"/>
          </name>
          <telecom>
            <system value="phone"/>
            <value value="+41 88 888 88 88"/>
            <use value="home"/>
          </telecom>
        </contact>
        <communication>
          <language>
            <coding>
              <system value="urn:ietf:bcp:47"/>
              <code value="de-CH"/>
              <display value="German (Switzerland)"/>
            </coding>
          </language>
          <preferred value="true"/>
        </communication>
        <link>
          <other>
            <reference value="RelatedPerson/UC1-RelatedPerson-Mother"/>
          </other>
          <type value="seealso"/>
        </link>
      </Patient>
    </resource>
  </entry>
  <entry>
    <fullUrl value="http://test.fhir.ch/r4/RelatedPerson/UC1-RelatedPerson-Mother"/>
    <resource>
      <RelatedPerson>
        <id value="UC1-RelatedPerson-Mother"/>
        <language value="de-CH"/>
        <text>
          <status value="generated"/><div xmlns="http://www.w3.org/1999/xhtml" xml:lang="de-CH" lang="de-CH"><a name="RelatedPerson_UC1-RelatedPerson-Mother"> </a><p class="res-header-id"><b>Generated Narrative: RelatedPerson UC1-RelatedPerson-Mother</b></p><a name="UC1-RelatedPerson-Mother"> </a><a name="hcUC1-RelatedPerson-Mother"> </a><a name="UC1-RelatedPerson-Mother-en-US"> </a><div style="display: inline-block; background-color: #d9e0e7; padding: 6px; margin: 4px; border: 1px solid #8da1b4; border-radius: 5px; line-height: 60%"><p style="margin-bottom: 0px">Language: de-CH</p></div><p><b>patient</b>: <a href="Patient-UC1-Child.html">Anonymous Patient Female, DoB Unknown ( Patient internal identifier: A)</a></p><p><b>relationship</b>: <span title="Codes:{http://snomed.info/sct 65656005}">Natural mother (person)</span></p></div>
        </text>
        <patient>
          <reference value="Patient/UC1-Child"/>
        </patient>
        <relationship>
          <coding>
            <system value="http://snomed.info/sct"/>
            <code value="65656005"/>
            <display value="Natural mother (person)"/>
          </coding>
        </relationship>
      </RelatedPerson>
    </resource>
  </entry>
  <entry>
    <fullUrl value="http://test.fhir.ch/r4/Patient/UC1-Child"/>
    <resource>
      <Patient>
        <id value="UC1-Child"/>
        <language value="de-CH"/>
        <text>
          <status value="generated"/><div xmlns="http://www.w3.org/1999/xhtml" xml:lang="de-CH" lang="de-CH"><a name="Patient_UC1-Child"> </a><p class="res-header-id"><b>Generated Narrative: Patient UC1-Child</b></p><a name="UC1-Child"> </a><a name="hcUC1-Child"> </a><a name="UC1-Child-en-US"> </a><div style="display: inline-block; background-color: #d9e0e7; padding: 6px; margin: 4px; border: 1px solid #8da1b4; border-radius: 5px; line-height: 60%"><p style="margin-bottom: 0px">Language: de-CH</p></div><p style="border: 1px #661aff solid; background-color: #e6e6ff; padding: 10px;">Anonymous Patient Female, DoB Unknown ( Patient internal identifier: A)</p><hr/></div>
        </text>
        <identifier>
          <type>
            <coding>
              <system value="http://terminology.hl7.org/CodeSystem/v2-0203"/>
              <code value="PI"/>
              <display value="Patient internal identifier"/>
            </coding>
          </type>
          <system value="http://example.com/identifiers/child"/>
          <value value="A"/>
        </identifier>
        <gender value="female"/>
      </Patient>
    </resource>
  </entry>
  <entry>
    <fullUrl value="http://test.fhir.ch/r4/Coverage/UC1-BasicInsurance"/>
    <resource>
      <Coverage>
        <id value="UC1-BasicInsurance"/>
        <language value="de-CH"/>
        <text>
          <status value="generated"/><div xmlns="http://www.w3.org/1999/xhtml" xml:lang="de-CH" lang="de-CH"><a name="Coverage_UC1-BasicInsurance"> </a><p class="res-header-id"><b>Generated Narrative: Coverage UC1-BasicInsurance</b></p><a name="UC1-BasicInsurance"> </a><a name="hcUC1-BasicInsurance"> </a><a name="UC1-BasicInsurance-en-US"> </a><div style="display: inline-block; background-color: #d9e0e7; padding: 6px; margin: 4px; border: 1px solid #8da1b4; border-radius: 5px; line-height: 60%"><p style="margin-bottom: 0px">Language: de-CH</p></div><p><b>identifier</b>: Member Number/123456789</p><p><b>status</b>: Active</p><p><b>type</b>: <span title="Codes:{http://fhir.ch/ig/ch-core/CodeSystem/bfs-medstats-25-mainguarantor 1}">Krankenversicherung (obligat.)</span></p><p><b>beneficiary</b>: <a href="Patient-UC1-KatrinKinderlieb.html">Frau Katrin Kinderlieb Female, DoB: 1986-01-18 ( urn:oid:2.16.756.5.30.1.123.100.1.1.1#80756015090002647590)</a></p><p><b>payor</b>: <a href="#hcUC1-BasicInsurance/Sanitas">Organization Sanitas</a></p><hr/><blockquote><p class="res-header-id"><b>Generated Narrative: Organization #Sanitas</b></p><a name="UC1-BasicInsurance/Sanitas"> </a><a name="hcUC1-BasicInsurance/Sanitas"> </a><a name="UC1-BasicInsurance/Sanitas-en-US"> </a><p><b>name</b>: Sanitas</p></blockquote></div>
        </text>
        <contained>
          <Organization>
            <id value="Sanitas"/>
            <name value="Sanitas"/>
          </Organization>
        </contained>
        <identifier>
          <type>
            <coding>
              <system value="http://terminology.hl7.org/CodeSystem/v2-0203"/>
              <code value="MB"/>
              <display value="Member Number"/>
            </coding>
          </type>
          <system value="http://example.com/identifiers/insurance-number"/>
          <value value="123456789"/>
        </identifier>
        <status value="active"/>
        <type>
          <coding>
            <system value="http://fhir.ch/ig/ch-core/CodeSystem/bfs-medstats-25-mainguarantor"/>
            <code value="1"/>
            <display value="Krankenversicherung (obligat.)"/>
          </coding>
        </type>
        <beneficiary>
          <reference value="Patient/UC1-KatrinKinderlieb"/>
        </beneficiary>
        <payor>
          <reference value="#Sanitas"/>
        </payor>
      </Coverage>
    </resource>
  </entry>
  <entry>
    <fullUrl value="http://test.fhir.ch/r4/Coverage/UC1-SupplementaryInsurance"/>
    <resource>
      <Coverage>
        <id value="UC1-SupplementaryInsurance"/>
        <language value="de-CH"/>
        <text>
          <status value="generated"/><div xmlns="http://www.w3.org/1999/xhtml" xml:lang="de-CH" lang="de-CH"><a name="Coverage_UC1-SupplementaryInsurance"> </a><p class="res-header-id"><b>Generated Narrative: Coverage UC1-SupplementaryInsurance</b></p><a name="UC1-SupplementaryInsurance"> </a><a name="hcUC1-SupplementaryInsurance"> </a><a name="UC1-SupplementaryInsurance-en-US"> </a><div style="display: inline-block; background-color: #d9e0e7; padding: 6px; margin: 4px; border: 1px solid #8da1b4; border-radius: 5px; line-height: 60%"><p style="margin-bottom: 0px">Language: de-CH</p></div><p><b>identifier</b>: Member Number/555555555</p><p><b>status</b>: Active</p><p><b>type</b>: <span title="Codes:{http://fhir.ch/ig/ch-core/CodeSystem/mainguarantor ZV}">Zusatzversicherung</span></p><p><b>beneficiary</b>: <a href="Patient-UC1-KatrinKinderlieb.html">Frau Katrin Kinderlieb Female, DoB: 1986-01-18 ( urn:oid:2.16.756.5.30.1.123.100.1.1.1#80756015090002647590)</a></p><p><b>payor</b>: <a href="#hcUC1-SupplementaryInsurance/Helsana">Organization Helsana</a></p><hr/><blockquote><p class="res-header-id"><b>Generated Narrative: Organization #Helsana</b></p><a name="UC1-SupplementaryInsurance/Helsana"> </a><a name="hcUC1-SupplementaryInsurance/Helsana"> </a><a name="UC1-SupplementaryInsurance/Helsana-en-US"> </a><p><b>name</b>: Helsana</p></blockquote></div>
        </text>
        <contained>
          <Organization>
            <id value="Helsana"/>
            <name value="Helsana"/>
          </Organization>
        </contained>
        <identifier>
          <type>
            <coding>
              <system value="http://terminology.hl7.org/CodeSystem/v2-0203"/>
              <code value="MB"/>
              <display value="Member Number"/>
            </coding>
          </type>
          <system value="http://example.com/identifiers/insurance-number"/>
          <value value="555555555"/>
        </identifier>
        <status value="active"/>
        <type>
          <coding>
            <system value="http://fhir.ch/ig/ch-core/CodeSystem/mainguarantor"/>
            <code value="ZV"/>
            <display value="Zusatzversicherung"/>
          </coding>
        </type>
        <beneficiary>
          <reference value="Patient/UC1-KatrinKinderlieb"/>
        </beneficiary>
        <payor>
          <reference value="#Helsana"/>
        </payor>
      </Coverage>
    </resource>
  </entry>
  <entry>
    <fullUrl value="http://test.fhir.ch/r4/RelatedPerson/UC1-RelatedPerson-BiologicalFather"/>
    <resource>
      <RelatedPerson>
        <id value="UC1-RelatedPerson-BiologicalFather"/>
        <language value="de-CH"/>
        <text>
          <status value="extensions"/><div xmlns="http://www.w3.org/1999/xhtml" xml:lang="de-CH" lang="de-CH"><a name="RelatedPerson_UC1-RelatedPerson-BiologicalFather"> </a><p class="res-header-id"><b>Generated Narrative: RelatedPerson UC1-RelatedPerson-BiologicalFather</b></p><a name="UC1-RelatedPerson-BiologicalFather"> </a><a name="hcUC1-RelatedPerson-BiologicalFather"> </a><a name="UC1-RelatedPerson-BiologicalFather-en-US"> </a><div style="display: inline-block; background-color: #d9e0e7; padding: 6px; margin: 4px; border: 1px solid #8da1b4; border-radius: 5px; line-height: 60%"><p style="margin-bottom: 0px">Language: de-CH</p></div><blockquote><p><b>Patient Citizenship</b></p><ul><li>code: <span title="Codes:{urn:iso:std:iso:3166 CH}">Switzerland</span></li></ul></blockquote><p><b>CH EPREG Extension: Note</b>: Bemerkung</p><p><b>patient</b>: <a href="Patient-UC1-Child.html">Anonymous Patient Female, DoB Unknown ( Patient internal identifier: A)</a></p><p><b>relationship</b>: <span title="Codes:{http://snomed.info/sct 9947008}">Natural father (person)</span></p><p><b>name</b>: Pierre Kinderlieb </p><p><b>birthDate</b>: 1987-07-21</p><h3>Communications</h3><table class="grid"><tr><td style="display: none">-</td><td><b>Language</b></td><td><b>Preferred</b></td></tr><tr><td style="display: none">*</td><td><span title="Codes:{urn:ietf:bcp:47 de-CH}">German (Switzerland)</span></td><td>true</td></tr></table></div>
        </text>
        <extension url="http://hl7.org/fhir/StructureDefinition/patient-citizenship">
          <extension url="code">
            <valueCodeableConcept>
              <coding>
                <system value="urn:iso:std:iso:3166"/>
                <code value="CH"/>
                <display value="Switzerland"/>
              </coding>
            </valueCodeableConcept>
          </extension>
        </extension>
        <extension url="http://fhir.ch/ig/ch-epreg/StructureDefinition/ch-epreg-ext-note">
          <valueString value="Bemerkung"/>
        </extension>
        <patient>
          <reference value="Patient/UC1-Child"/>
        </patient>
        <relationship>
          <coding>
            <system value="http://snomed.info/sct"/>
            <code value="9947008"/>
            <display value="Natural father (person)"/>
          </coding>
        </relationship>
        <name>
          <family value="Kinderlieb"/>
          <given value="Pierre"/>
        </name>
        <birthDate value="1987-07-21"/>
        <communication>
          <language>
            <coding>
              <system value="urn:ietf:bcp:47"/>
              <code value="de-CH"/>
              <display value="German (Switzerland)"/>
            </coding>
          </language>
          <preferred value="true"/>
        </communication>
      </RelatedPerson>
    </resource>
  </entry>
  <entry>
    <fullUrl value="http://test.fhir.ch/r4/PractitionerRole/UC1-PetraSectionataAtFrauenzimmer"/>
    <resource>
      <PractitionerRole>
        <id value="UC1-PetraSectionataAtFrauenzimmer"/>
        <language value="de-CH"/>
        <text>
          <status value="extensions"/><div xmlns="http://www.w3.org/1999/xhtml" xml:lang="de-CH" lang="de-CH"><a name="PractitionerRole_UC1-PetraSectionataAtFrauenzimmer"> </a><p class="res-header-id"><b>Generated Narrative: PractitionerRole UC1-PetraSectionataAtFrauenzimmer</b></p><a name="UC1-PetraSectionataAtFrauenzimmer"> </a><a name="hcUC1-PetraSectionataAtFrauenzimmer"> </a><a name="UC1-PetraSectionataAtFrauenzimmer-en-US"> </a><div style="display: inline-block; background-color: #d9e0e7; padding: 6px; margin: 4px; border: 1px solid #8da1b4; border-radius: 5px; line-height: 60%"><p style="margin-bottom: 0px">Language: de-CH</p></div><p><b>CH EPREG Extension: Note</b>: Bemerkung</p><p><b>practitioner</b>: <a href="Practitioner-UC1-PetraSectionata.html">Practitioner Petra Sectionata </a></p><p><b>organization</b>: <a href="Organization-UC1-Frauenzimmer.html">Organization Frauenzimmer</a></p><p><b>code</b>: <span title="Codes:{http://snomed.info/sct 309343006}">Arzt / Ärztin</span></p><p><b>specialty</b>: <span title="Codes:{urn:oid:2.16.756.5.30.1.127.3.5 1003}">Gynäkologie und Geburtshilfe</span></p></div>
        </text>
        <extension url="http://fhir.ch/ig/ch-epreg/StructureDefinition/ch-epreg-ext-note">
          <valueString value="Bemerkung"/>
        </extension>
        <practitioner>
          <reference value="Practitioner/UC1-PetraSectionata"/>
        </practitioner>
        <organization>
          <reference value="Organization/UC1-Frauenzimmer"/>
        </organization>
        <code>
          <coding>
            <system value="http://snomed.info/sct"/>
            <code value="309343006"/>
            <display value="Arzt / Ärztin"/>
          </coding>
        </code>
        <specialty>
          <coding>
            <system value="urn:oid:2.16.756.5.30.1.127.3.5"/>
            <code value="1003"/>
            <display value="Gynäkologie und Geburtshilfe"/>
          </coding>
        </specialty>
      </PractitionerRole>
    </resource>
  </entry>
  <entry>
    <fullUrl value="http://test.fhir.ch/r4/Practitioner/UC1-PetraSectionata"/>
    <resource>
      <Practitioner>
        <id value="UC1-PetraSectionata"/>
        <language value="de-CH"/>
        <text>
          <status value="generated"/><div xmlns="http://www.w3.org/1999/xhtml" xml:lang="de-CH" lang="de-CH"><a name="Practitioner_UC1-PetraSectionata"> </a><p class="res-header-id"><b>Generated Narrative: Practitioner UC1-PetraSectionata</b></p><a name="UC1-PetraSectionata"> </a><a name="hcUC1-PetraSectionata"> </a><a name="UC1-PetraSectionata-en-US"> </a><div style="display: inline-block; background-color: #d9e0e7; padding: 6px; margin: 4px; border: 1px solid #8da1b4; border-radius: 5px; line-height: 60%"><p style="margin-bottom: 0px">Language: de-CH</p></div><p><b>identifier</b>: <a href="https://www.gs1.org/standards/id-keys/gln" title="Global Location Number">GLN</a>/7610000050719</p><p><b>name</b>: Petra Sectionata </p></div>
        </text>
        <identifier>
          <system value="urn:oid:2.51.1.3"/>
          <value value="7610000050719"/>
        </identifier>
        <name>
          <family value="Sectionata"/>
          <given value="Petra"/>
          <prefix value="Dr. med."/>
        </name>
      </Practitioner>
    </resource>
  </entry>
  <entry>
    <fullUrl value="http://test.fhir.ch/r4/Organization/UC1-Frauenzimmer"/>
    <resource>
      <Organization>
        <id value="UC1-Frauenzimmer"/>
        <language value="de-CH"/>
        <text>
          <status value="generated"/><div xmlns="http://www.w3.org/1999/xhtml" xml:lang="de-CH" lang="de-CH"><a name="Organization_UC1-Frauenzimmer"> </a><p class="res-header-id"><b>Generated Narrative: Organization UC1-Frauenzimmer</b></p><a name="UC1-Frauenzimmer"> </a><a name="hcUC1-Frauenzimmer"> </a><a name="UC1-Frauenzimmer-en-US"> </a><div style="display: inline-block; background-color: #d9e0e7; padding: 6px; margin: 4px; border: 1px solid #8da1b4; border-radius: 5px; line-height: 60%"><p style="margin-bottom: 0px">Language: de-CH</p></div><p><b>name</b>: Frauenzimmer</p><p><b>telecom</b>: <a href="mailto:frauenzimmer@example.com">frauenzimmer@example.com</a>, <a href="tel:+41794444444">+41 79 444 44 44</a>, <a href="tel:+41444444444">+41 44 444 44 44</a></p><p><b>address</b>: Zimmergasse 1 Musterhausen 8888 Schweiz </p></div>
        </text>
        <name value="Frauenzimmer"/>
        <telecom>
          <system value="email"/>
          <value value="frauenzimmer@example.com"/>
        </telecom>
        <telecom>
          <system value="phone"/>
          <value value="+41 79 444 44 44"/>
          <use value="mobile"/>
        </telecom>
        <telecom>
          <system value="phone"/>
          <value value="+41 44 444 44 44"/>
          <use value="work"/>
        </telecom>
        <address>
          <line value="Zimmergasse 1"/>
          <city value="Musterhausen"/>
          <postalCode value="8888"/>
          <country value="Schweiz"/>
        </address>
      </Organization>
    </resource>
  </entry>
  <entry>
    <fullUrl value="http://test.fhir.ch/r4/Organization/UC1-LaborPipette"/>
    <resource>
      <Organization>
        <id value="UC1-LaborPipette"/>
        <language value="de-CH"/>
        <text>
          <status value="generated"/><div xmlns="http://www.w3.org/1999/xhtml" xml:lang="de-CH" lang="de-CH"><a name="Organization_UC1-LaborPipette"> </a><p class="res-header-id"><b>Generated Narrative: Organization UC1-LaborPipette</b></p><a name="UC1-LaborPipette"> </a><a name="hcUC1-LaborPipette"> </a><a name="UC1-LaborPipette-en-US"> </a><div style="display: inline-block; background-color: #d9e0e7; padding: 6px; margin: 4px; border: 1px solid #8da1b4; border-radius: 5px; line-height: 60%"><p style="margin-bottom: 0px">Language: de-CH</p></div><p><b>name</b>: Labor Pipette</p></div>
        </text>
        <name value="Labor Pipette"/>
      </Organization>
    </resource>
  </entry>
  <entry>
    <fullUrl value="http://test.fhir.ch/r4/Observation/UC1-BloodGroup-20250205"/>
    <resource>
      <Observation>
        <id value="UC1-BloodGroup-20250205"/>
        <language value="de-CH"/>
        <text>
          <status value="generated"/><div xmlns="http://www.w3.org/1999/xhtml" xml:lang="de-CH" lang="de-CH"><a name="Observation_UC1-BloodGroup-20250205"> </a><p class="res-header-id"><b>Generated Narrative: Observation UC1-BloodGroup-20250205</b></p><a name="UC1-BloodGroup-20250205"> </a><a name="hcUC1-BloodGroup-20250205"> </a><a name="UC1-BloodGroup-20250205-en-US"> </a><div style="display: inline-block; background-color: #d9e0e7; padding: 6px; margin: 4px; border: 1px solid #8da1b4; border-radius: 5px; line-height: 60%"><p style="margin-bottom: 0px">Language: de-CH</p></div><p><b>status</b>: Final</p><p><b>category</b>: <span title="Codes:{http://terminology.hl7.org/CodeSystem/observation-category laboratory}">Laboratory</span></p><p><b>code</b>: <span title="Codes:{http://snomed.info/sct 365636006}">Finding of blood group (finding)</span></p><p><b>subject</b>: <a href="Patient-UC1-KatrinKinderlieb.html">Frau Katrin Kinderlieb Female, DoB: 1986-01-18 ( urn:oid:2.16.756.5.30.1.123.100.1.1.1#80756015090002647590)</a></p><p><b>effective</b>: 2025-02-05</p><p><b>performer</b>: <a href="Organization-UC1-LaborPipette.html">Organization Labor Pipette</a></p><p><b>value</b>: <span title="Codes:{http://snomed.info/sct 278151004}">Blood group AB Rh(D) positive (finding)</span></p></div>
        </text>
        <status value="final"/>
        <category>
          <coding>
            <system value="http://terminology.hl7.org/CodeSystem/observation-category"/>
            <code value="laboratory"/>
            <display value="Laboratory"/>
          </coding>
        </category>
        <code>
          <coding>
            <system value="http://snomed.info/sct"/>
            <code value="365636006"/>
            <display value="Finding of blood group (finding)"/>
          </coding>
        </code>
        <subject>
          <reference value="Patient/UC1-KatrinKinderlieb"/>
        </subject>
        <effectiveDateTime value="2025-02-05"/>
        <performer>
          <reference value="Organization/UC1-LaborPipette"/>
        </performer>
        <valueCodeableConcept>
          <coding>
            <system value="http://snomed.info/sct"/>
            <code value="278151004"/>
            <display value="Blood group AB Rh(D) positive (finding)"/>
          </coding>
        </valueCodeableConcept>
      </Observation>
    </resource>
  </entry>
  <entry>
    <fullUrl value="http://test.fhir.ch/r4/Observation/UC1-FetalRhD-20250205"/>
    <resource>
      <Observation>
        <id value="UC1-FetalRhD-20250205"/>
        <language value="de-CH"/>
        <text>
          <status value="generated"/><div xmlns="http://www.w3.org/1999/xhtml" xml:lang="de-CH" lang="de-CH"><a name="Observation_UC1-FetalRhD-20250205"> </a><p class="res-header-id"><b>Generated Narrative: Observation UC1-FetalRhD-20250205</b></p><a name="UC1-FetalRhD-20250205"> </a><a name="hcUC1-FetalRhD-20250205"> </a><a name="UC1-FetalRhD-20250205-en-US"> </a><div style="display: inline-block; background-color: #d9e0e7; padding: 6px; margin: 4px; border: 1px solid #8da1b4; border-radius: 5px; line-height: 60%"><p style="margin-bottom: 0px">Language: de-CH</p></div><p><b>status</b>: Final</p><p><b>category</b>: <span title="Codes:{http://terminology.hl7.org/CodeSystem/observation-category laboratory}">Laboratory</span></p><p><b>code</b>: <span title="Codes:{http://loinc.org 77016-4}">Fetal RhD antigen in Plasma cell-free DNA by MS.MALDI-TOF</span></p><p><b>subject</b>: <a href="Patient-UC1-KatrinKinderlieb.html">Frau Katrin Kinderlieb Female, DoB: 1986-01-18 ( urn:oid:2.16.756.5.30.1.123.100.1.1.1#80756015090002647590)</a></p><p><b>effective</b>: 2025-02-05</p><p><b>performer</b>: <a href="Organization-UC1-LaborPipette.html">Organization Labor Pipette</a></p><p><b>value</b>: <span title="Codes:{http://loinc.org LA22747-2}">RhD positive</span></p></div>
        </text>
        <status value="final"/>
        <category>
          <coding>
            <system value="http://terminology.hl7.org/CodeSystem/observation-category"/>
            <code value="laboratory"/>
            <display value="Laboratory"/>
          </coding>
        </category>
        <code>
          <coding>
            <system value="http://loinc.org"/>
            <code value="77016-4"/>
            <display value="Fetal RhD antigen in Plasma cell-free DNA by MS.MALDI-TOF"/>
          </coding>
        </code>
        <subject>
          <reference value="Patient/UC1-KatrinKinderlieb"/>
        </subject>
        <effectiveDateTime value="2025-02-05"/>
        <performer>
          <reference value="Organization/UC1-LaborPipette"/>
        </performer>
        <valueCodeableConcept>
          <coding>
            <system value="http://loinc.org"/>
            <code value="LA22747-2"/>
            <display value="RhD positive"/>
          </coding>
        </valueCodeableConcept>
      </Observation>
    </resource>
  </entry>
  <entry>
    <fullUrl value="http://test.fhir.ch/r4/Observation/UC1-Creatinine-20250205"/>
    <resource>
      <Observation>
        <id value="UC1-Creatinine-20250205"/>
        <language value="de-CH"/>
        <text>
          <status value="generated"/><div xmlns="http://www.w3.org/1999/xhtml" xml:lang="de-CH" lang="de-CH"><a name="Observation_UC1-Creatinine-20250205"> </a><p class="res-header-id"><b>Generated Narrative: Observation UC1-Creatinine-20250205</b></p><a name="UC1-Creatinine-20250205"> </a><a name="hcUC1-Creatinine-20250205"> </a><a name="UC1-Creatinine-20250205-en-US"> </a><div style="display: inline-block; background-color: #d9e0e7; padding: 6px; margin: 4px; border: 1px solid #8da1b4; border-radius: 5px; line-height: 60%"><p style="margin-bottom: 0px">Language: de-CH</p></div><p><b>status</b>: Final</p><p><b>category</b>: <span title="Codes:{http://terminology.hl7.org/CodeSystem/observation-category laboratory}">Laboratory</span></p><p><b>code</b>: <span title="Codes:{http://loinc.org 2160-0}">Creatinine [Mass/volume] in Serum or Plasma</span></p><p><b>subject</b>: <a href="Patient-UC1-KatrinKinderlieb.html">Frau Katrin Kinderlieb Female, DoB: 1986-01-18 ( urn:oid:2.16.756.5.30.1.123.100.1.1.1#80756015090002647590)</a></p><p><b>effective</b>: 2025-02-05</p><p><b>performer</b>: <a href="Organization-UC1-LaborPipette.html">Organization Labor Pipette</a></p><p><b>value</b>: 1.2 milligram per deciliter<span style="background: LightGoldenRodYellow"> (Details: UCUM  codemg/dL = 'mg/dL')</span></p><p><b>interpretation</b>: <span title="Codes:{http://terminology.hl7.org/CodeSystem/v3-ObservationInterpretation H}">High</span></p></div>
        </text>
        <status value="final"/>
        <category>
          <coding>
            <system value="http://terminology.hl7.org/CodeSystem/observation-category"/>
            <code value="laboratory"/>
            <display value="Laboratory"/>
          </coding>
        </category>
        <code>
          <coding>
            <system value="http://loinc.org"/>
            <code value="2160-0"/>
            <display value="Creatinine [Mass/volume] in Serum or Plasma"/>
          </coding>
        </code>
        <subject>
          <reference value="Patient/UC1-KatrinKinderlieb"/>
        </subject>
        <effectiveDateTime value="2025-02-05"/>
        <performer>
          <reference value="Organization/UC1-LaborPipette"/>
        </performer>
        <valueQuantity>
          <value value="1.2"/>
          <unit value="milligram per deciliter"/>
          <system value="http://unitsofmeasure.org"/>
          <code value="mg/dL"/>
        </valueQuantity>
        <interpretation>
          <coding>
            <system value="http://terminology.hl7.org/CodeSystem/v3-ObservationInterpretation"/>
            <code value="H"/>
            <display value="High"/>
          </coding>
        </interpretation>
      </Observation>
    </resource>
  </entry>
  <entry>
    <fullUrl value="http://test.fhir.ch/r4/Observation/UC1-Urate-20250205"/>
    <resource>
      <Observation>
        <id value="UC1-Urate-20250205"/>
        <language value="de-CH"/>
        <text>
          <status value="generated"/><div xmlns="http://www.w3.org/1999/xhtml" xml:lang="de-CH" lang="de-CH"><a name="Observation_UC1-Urate-20250205"> </a><p class="res-header-id"><b>Generated Narrative: Observation UC1-Urate-20250205</b></p><a name="UC1-Urate-20250205"> </a><a name="hcUC1-Urate-20250205"> </a><a name="UC1-Urate-20250205-en-US"> </a><div style="display: inline-block; background-color: #d9e0e7; padding: 6px; margin: 4px; border: 1px solid #8da1b4; border-radius: 5px; line-height: 60%"><p style="margin-bottom: 0px">Language: de-CH</p></div><p><b>status</b>: Final</p><p><b>category</b>: <span title="Codes:{http://terminology.hl7.org/CodeSystem/observation-category laboratory}">Laboratory</span></p><p><b>code</b>: <span title="Codes:{http://loinc.org 3084-1}">Urate [Mass/volume] in Serum or Plasma</span></p><p><b>subject</b>: <a href="Patient-UC1-KatrinKinderlieb.html">Frau Katrin Kinderlieb Female, DoB: 1986-01-18 ( urn:oid:2.16.756.5.30.1.123.100.1.1.1#80756015090002647590)</a></p><p><b>effective</b>: 2025-02-05</p><p><b>performer</b>: <a href="Organization-UC1-LaborPipette.html">Organization Labor Pipette</a></p><p><b>value</b>: 6.3 milligram per deciliter<span style="background: LightGoldenRodYellow"> (Details: UCUM  codemg/dL = 'mg/dL')</span></p><p><b>interpretation</b>: <span title="Codes:{http://terminology.hl7.org/CodeSystem/v3-ObservationInterpretation H}">High</span></p></div>
        </text>
        <status value="final"/>
        <category>
          <coding>
            <system value="http://terminology.hl7.org/CodeSystem/observation-category"/>
            <code value="laboratory"/>
            <display value="Laboratory"/>
          </coding>
        </category>
        <code>
          <coding>
            <system value="http://loinc.org"/>
            <code value="3084-1"/>
            <display value="Urate [Mass/volume] in Serum or Plasma"/>
          </coding>
        </code>
        <subject>
          <reference value="Patient/UC1-KatrinKinderlieb"/>
        </subject>
        <effectiveDateTime value="2025-02-05"/>
        <performer>
          <reference value="Organization/UC1-LaborPipette"/>
        </performer>
        <valueQuantity>
          <value value="6.3"/>
          <unit value="milligram per deciliter"/>
          <system value="http://unitsofmeasure.org"/>
          <code value="mg/dL"/>
        </valueQuantity>
        <interpretation>
          <coding>
            <system value="http://terminology.hl7.org/CodeSystem/v3-ObservationInterpretation"/>
            <code value="H"/>
            <display value="High"/>
          </coding>
        </interpretation>
      </Observation>
    </resource>
  </entry>
  <entry>
    <fullUrl value="http://test.fhir.ch/r4/Observation/UC1-GFR-20250205"/>
    <resource>
      <Observation>
        <id value="UC1-GFR-20250205"/>
        <language value="de-CH"/>
        <text>
          <status value="generated"/><div xmlns="http://www.w3.org/1999/xhtml" xml:lang="de-CH" lang="de-CH"><a name="Observation_UC1-GFR-20250205"> </a><p class="res-header-id"><b>Generated Narrative: Observation UC1-GFR-20250205</b></p><a name="UC1-GFR-20250205"> </a><a name="hcUC1-GFR-20250205"> </a><a name="UC1-GFR-20250205-en-US"> </a><div style="display: inline-block; background-color: #d9e0e7; padding: 6px; margin: 4px; border: 1px solid #8da1b4; border-radius: 5px; line-height: 60%"><p style="margin-bottom: 0px">Language: de-CH</p></div><p><b>status</b>: Final</p><p><b>category</b>: <span title="Codes:{http://terminology.hl7.org/CodeSystem/observation-category laboratory}">Laboratory</span></p><p><b>code</b>: <span title="Codes:{http://loinc.org 62238-1}">Glomerular filtration rate [Volume Rate/Area] in Serum, Plasma or Blood by Creatinine-based formula (CKD-EPI)/1.73 sq M</span></p><p><b>subject</b>: <a href="Patient-UC1-KatrinKinderlieb.html">Frau Katrin Kinderlieb Female, DoB: 1986-01-18 ( urn:oid:2.16.756.5.30.1.123.100.1.1.1#80756015090002647590)</a></p><p><b>effective</b>: 2025-02-05</p><p><b>performer</b>: <a href="Organization-UC1-LaborPipette.html">Organization Labor Pipette</a></p><p><b>value</b>: 54 milliliter per minute per 1.73 square meter<span style="background: LightGoldenRodYellow"> (Details: UCUM  codemL/min/1.73.m2 = 'mL/min/1.73.m2')</span></p></div>
        </text>
        <status value="final"/>
        <category>
          <coding>
            <system value="http://terminology.hl7.org/CodeSystem/observation-category"/>
            <code value="laboratory"/>
            <display value="Laboratory"/>
          </coding>
        </category>
        <code>
          <coding>
            <system value="http://loinc.org"/>
            <code value="62238-1"/>
            <display value="Glomerular filtration rate [Volume Rate/Area] in Serum, Plasma or Blood by Creatinine-based formula (CKD-EPI)/1.73 sq M"/>
          </coding>
        </code>
        <subject>
          <reference value="Patient/UC1-KatrinKinderlieb"/>
        </subject>
        <effectiveDateTime value="2025-02-05"/>
        <performer>
          <reference value="Organization/UC1-LaborPipette"/>
        </performer>
        <valueQuantity>
          <value value="54"/>
          <unit value="milliliter per minute per 1.73 square meter"/>
          <system value="http://unitsofmeasure.org"/>
          <code value="mL/min/1.73.m2"/>
        </valueQuantity>
      </Observation>
    </resource>
  </entry>
  <entry>
    <fullUrl value="http://test.fhir.ch/r4/Observation/UC1-GGT-20250205"/>
    <resource>
      <Observation>
        <id value="UC1-GGT-20250205"/>
        <language value="de-CH"/>
        <text>
          <status value="generated"/><div xmlns="http://www.w3.org/1999/xhtml" xml:lang="de-CH" lang="de-CH"><a name="Observation_UC1-GGT-20250205"> </a><p class="res-header-id"><b>Generated Narrative: Observation UC1-GGT-20250205</b></p><a name="UC1-GGT-20250205"> </a><a name="hcUC1-GGT-20250205"> </a><a name="UC1-GGT-20250205-en-US"> </a><div style="display: inline-block; background-color: #d9e0e7; padding: 6px; margin: 4px; border: 1px solid #8da1b4; border-radius: 5px; line-height: 60%"><p style="margin-bottom: 0px">Language: de-CH</p></div><p><b>status</b>: Final</p><p><b>category</b>: <span title="Codes:{http://terminology.hl7.org/CodeSystem/observation-category laboratory}">Laboratory</span></p><p><b>code</b>: <span title="Codes:{http://loinc.org 2324-2}">Gamma glutamyl transferase [Enzymatic activity/volume] in Serum or Plasma</span></p><p><b>subject</b>: <a href="Patient-UC1-KatrinKinderlieb.html">Frau Katrin Kinderlieb Female, DoB: 1986-01-18 ( urn:oid:2.16.756.5.30.1.123.100.1.1.1#80756015090002647590)</a></p><p><b>effective</b>: 2025-02-05</p><p><b>performer</b>: <a href="Organization-UC1-LaborPipette.html">Organization Labor Pipette</a></p><p><b>value</b>: 43 enzyme unit per liter<span style="background: LightGoldenRodYellow"> (Details: UCUM  codeU/L = 'U/L')</span></p></div>
        </text>
        <status value="final"/>
        <category>
          <coding>
            <system value="http://terminology.hl7.org/CodeSystem/observation-category"/>
            <code value="laboratory"/>
            <display value="Laboratory"/>
          </coding>
        </category>
        <code>
          <coding>
            <system value="http://loinc.org"/>
            <code value="2324-2"/>
            <display value="Gamma glutamyl transferase [Enzymatic activity/volume] in Serum or Plasma"/>
          </coding>
        </code>
        <subject>
          <reference value="Patient/UC1-KatrinKinderlieb"/>
        </subject>
        <effectiveDateTime value="2025-02-05"/>
        <performer>
          <reference value="Organization/UC1-LaborPipette"/>
        </performer>
        <valueQuantity>
          <value value="43"/>
          <unit value="enzyme unit per liter"/>
          <system value="http://unitsofmeasure.org"/>
          <code value="U/L"/>
        </valueQuantity>
      </Observation>
    </resource>
  </entry>
  <entry>
    <fullUrl value="http://test.fhir.ch/r4/Observation/UC1-AST-20250205"/>
    <resource>
      <Observation>
        <id value="UC1-AST-20250205"/>
        <language value="de-CH"/>
        <text>
          <status value="generated"/><div xmlns="http://www.w3.org/1999/xhtml" xml:lang="de-CH" lang="de-CH"><a name="Observation_UC1-AST-20250205"> </a><p class="res-header-id"><b>Generated Narrative: Observation UC1-AST-20250205</b></p><a name="UC1-AST-20250205"> </a><a name="hcUC1-AST-20250205"> </a><a name="UC1-AST-20250205-en-US"> </a><div style="display: inline-block; background-color: #d9e0e7; padding: 6px; margin: 4px; border: 1px solid #8da1b4; border-radius: 5px; line-height: 60%"><p style="margin-bottom: 0px">Language: de-CH</p></div><p><b>status</b>: Final</p><p><b>category</b>: <span title="Codes:{http://terminology.hl7.org/CodeSystem/observation-category laboratory}">Laboratory</span></p><p><b>code</b>: <span title="Codes:{http://loinc.org 1920-8}">Aspartate aminotransferase [Enzymatic activity/volume] in Serum or Plasma</span></p><p><b>subject</b>: <a href="Patient-UC1-KatrinKinderlieb.html">Frau Katrin Kinderlieb Female, DoB: 1986-01-18 ( urn:oid:2.16.756.5.30.1.123.100.1.1.1#80756015090002647590)</a></p><p><b>effective</b>: 2025-02-05</p><p><b>performer</b>: <a href="Organization-UC1-LaborPipette.html">Organization Labor Pipette</a></p><p><b>value</b>: 43 enzyme unit per liter<span style="background: LightGoldenRodYellow"> (Details: UCUM  codeU/L = 'U/L')</span></p></div>
        </text>
        <status value="final"/>
        <category>
          <coding>
            <system value="http://terminology.hl7.org/CodeSystem/observation-category"/>
            <code value="laboratory"/>
            <display value="Laboratory"/>
          </coding>
        </category>
        <code>
          <coding>
            <system value="http://loinc.org"/>
            <code value="1920-8"/>
            <display value="Aspartate aminotransferase [Enzymatic activity/volume] in Serum or Plasma"/>
          </coding>
        </code>
        <subject>
          <reference value="Patient/UC1-KatrinKinderlieb"/>
        </subject>
        <effectiveDateTime value="2025-02-05"/>
        <performer>
          <reference value="Organization/UC1-LaborPipette"/>
        </performer>
        <valueQuantity>
          <value value="43"/>
          <unit value="enzyme unit per liter"/>
          <system value="http://unitsofmeasure.org"/>
          <code value="U/L"/>
        </valueQuantity>
      </Observation>
    </resource>
  </entry>
  <entry>
    <fullUrl value="http://test.fhir.ch/r4/Observation/UC1-ALAT-20250205"/>
    <resource>
      <Observation>
        <id value="UC1-ALAT-20250205"/>
        <language value="de-CH"/>
        <text>
          <status value="generated"/><div xmlns="http://www.w3.org/1999/xhtml" xml:lang="de-CH" lang="de-CH"><a name="Observation_UC1-ALAT-20250205"> </a><p class="res-header-id"><b>Generated Narrative: Observation UC1-ALAT-20250205</b></p><a name="UC1-ALAT-20250205"> </a><a name="hcUC1-ALAT-20250205"> </a><a name="UC1-ALAT-20250205-en-US"> </a><div style="display: inline-block; background-color: #d9e0e7; padding: 6px; margin: 4px; border: 1px solid #8da1b4; border-radius: 5px; line-height: 60%"><p style="margin-bottom: 0px">Language: de-CH</p></div><p><b>status</b>: Final</p><p><b>category</b>: <span title="Codes:{http://terminology.hl7.org/CodeSystem/observation-category laboratory}">Laboratory</span></p><p><b>code</b>: <span title="Codes:{http://loinc.org 1742-6}">Alanine aminotransferase [Enzymatic activity/volume] in Serum or Plasma</span></p><p><b>subject</b>: <a href="Patient-UC1-KatrinKinderlieb.html">Frau Katrin Kinderlieb Female, DoB: 1986-01-18 ( urn:oid:2.16.756.5.30.1.123.100.1.1.1#80756015090002647590)</a></p><p><b>effective</b>: 2025-02-05</p><p><b>performer</b>: <a href="Organization-UC1-LaborPipette.html">Organization Labor Pipette</a></p><p><b>value</b>: 98 enzyme unit per liter<span style="background: LightGoldenRodYellow"> (Details: UCUM  codeU/L = 'U/L')</span></p></div>
        </text>
        <status value="final"/>
        <category>
          <coding>
            <system value="http://terminology.hl7.org/CodeSystem/observation-category"/>
            <code value="laboratory"/>
            <display value="Laboratory"/>
          </coding>
        </category>
        <code>
          <coding>
            <system value="http://loinc.org"/>
            <code value="1742-6"/>
            <display value="Alanine aminotransferase [Enzymatic activity/volume] in Serum or Plasma"/>
          </coding>
        </code>
        <subject>
          <reference value="Patient/UC1-KatrinKinderlieb"/>
        </subject>
        <effectiveDateTime value="2025-02-05"/>
        <performer>
          <reference value="Organization/UC1-LaborPipette"/>
        </performer>
        <valueQuantity>
          <value value="98"/>
          <unit value="enzyme unit per liter"/>
          <system value="http://unitsofmeasure.org"/>
          <code value="U/L"/>
        </valueQuantity>
      </Observation>
    </resource>
  </entry>
  <entry>
    <fullUrl value="http://test.fhir.ch/r4/Observation/UC1-AP-20250205"/>
    <resource>
      <Observation>
        <id value="UC1-AP-20250205"/>
        <language value="de-CH"/>
        <text>
          <status value="generated"/><div xmlns="http://www.w3.org/1999/xhtml" xml:lang="de-CH" lang="de-CH"><a name="Observation_UC1-AP-20250205"> </a><p class="res-header-id"><b>Generated Narrative: Observation UC1-AP-20250205</b></p><a name="UC1-AP-20250205"> </a><a name="hcUC1-AP-20250205"> </a><a name="UC1-AP-20250205-en-US"> </a><div style="display: inline-block; background-color: #d9e0e7; padding: 6px; margin: 4px; border: 1px solid #8da1b4; border-radius: 5px; line-height: 60%"><p style="margin-bottom: 0px">Language: de-CH</p></div><p><b>status</b>: Final</p><p><b>category</b>: <span title="Codes:{http://terminology.hl7.org/CodeSystem/observation-category laboratory}">Laboratory</span></p><p><b>code</b>: <span title="Codes:{http://loinc.org 6768-6}">Alkaline phosphatase [Enzymatic activity/volume] in Serum or Plasma</span></p><p><b>subject</b>: <a href="Patient-UC1-KatrinKinderlieb.html">Frau Katrin Kinderlieb Female, DoB: 1986-01-18 ( urn:oid:2.16.756.5.30.1.123.100.1.1.1#80756015090002647590)</a></p><p><b>effective</b>: 2025-02-05</p><p><b>performer</b>: <a href="Organization-UC1-LaborPipette.html">Organization Labor Pipette</a></p><p><b>value</b>: 109 enzyme unit per liter<span style="background: LightGoldenRodYellow"> (Details: UCUM  codeU/L = 'U/L')</span></p></div>
        </text>
        <status value="final"/>
        <category>
          <coding>
            <system value="http://terminology.hl7.org/CodeSystem/observation-category"/>
            <code value="laboratory"/>
            <display value="Laboratory"/>
          </coding>
        </category>
        <code>
          <coding>
            <system value="http://loinc.org"/>
            <code value="6768-6"/>
            <display value="Alkaline phosphatase [Enzymatic activity/volume] in Serum or Plasma"/>
          </coding>
        </code>
        <subject>
          <reference value="Patient/UC1-KatrinKinderlieb"/>
        </subject>
        <effectiveDateTime value="2025-02-05"/>
        <performer>
          <reference value="Organization/UC1-LaborPipette"/>
        </performer>
        <valueQuantity>
          <value value="109"/>
          <unit value="enzyme unit per liter"/>
          <system value="http://unitsofmeasure.org"/>
          <code value="U/L"/>
        </valueQuantity>
      </Observation>
    </resource>
  </entry>
  <entry>
    <fullUrl value="http://test.fhir.ch/r4/Observation/UC1-GlucoseLab-20250205"/>
    <resource>
      <Observation>
        <id value="UC1-GlucoseLab-20250205"/>
        <language value="de-CH"/>
        <text>
          <status value="generated"/><div xmlns="http://www.w3.org/1999/xhtml" xml:lang="de-CH" lang="de-CH"><a name="Observation_UC1-GlucoseLab-20250205"> </a><p class="res-header-id"><b>Generated Narrative: Observation UC1-GlucoseLab-20250205</b></p><a name="UC1-GlucoseLab-20250205"> </a><a name="hcUC1-GlucoseLab-20250205"> </a><a name="UC1-GlucoseLab-20250205-en-US"> </a><div style="display: inline-block; background-color: #d9e0e7; padding: 6px; margin: 4px; border: 1px solid #8da1b4; border-radius: 5px; line-height: 60%"><p style="margin-bottom: 0px">Language: de-CH</p></div><p><b>status</b>: Final</p><p><b>category</b>: <span title="Codes:{http://terminology.hl7.org/CodeSystem/observation-category laboratory}">Laboratory</span></p><p><b>code</b>: <span title="Codes:{http://loinc.org 14771-0}">Fasting glucose [Moles/volume] in Serum or Plasma</span></p><p><b>subject</b>: <a href="Patient-UC1-KatrinKinderlieb.html">Frau Katrin Kinderlieb Female, DoB: 1986-01-18 ( urn:oid:2.16.756.5.30.1.123.100.1.1.1#80756015090002647590)</a></p><p><b>effective</b>: 2025-02-05</p><p><b>performer</b>: <a href="Organization-UC1-LaborPipette.html">Organization Labor Pipette</a></p><p><b>value</b>: 8.1 millimole per liter<span style="background: LightGoldenRodYellow"> (Details: UCUM  codemmol/L = 'mmol/L')</span></p></div>
        </text>
        <status value="final"/>
        <category>
          <coding>
            <system value="http://terminology.hl7.org/CodeSystem/observation-category"/>
            <code value="laboratory"/>
            <display value="Laboratory"/>
          </coding>
        </category>
        <code>
          <coding>
            <system value="http://loinc.org"/>
            <code value="14771-0"/>
            <display value="Fasting glucose [Moles/volume] in Serum or Plasma"/>
          </coding>
        </code>
        <subject>
          <reference value="Patient/UC1-KatrinKinderlieb"/>
        </subject>
        <effectiveDateTime value="2025-02-05"/>
        <performer>
          <reference value="Organization/UC1-LaborPipette"/>
        </performer>
        <valueQuantity>
          <value value="8.1"/>
          <unit value="millimole per liter"/>
          <system value="http://unitsofmeasure.org"/>
          <code value="mmol/L"/>
        </valueQuantity>
      </Observation>
    </resource>
  </entry>
  <entry>
    <fullUrl value="http://test.fhir.ch/r4/Observation/UC1-Hematocrit-20250205"/>
    <resource>
      <Observation>
        <id value="UC1-Hematocrit-20250205"/>
        <language value="de-CH"/>
        <text>
          <status value="generated"/><div xmlns="http://www.w3.org/1999/xhtml" xml:lang="de-CH" lang="de-CH"><a name="Observation_UC1-Hematocrit-20250205"> </a><p class="res-header-id"><b>Generated Narrative: Observation UC1-Hematocrit-20250205</b></p><a name="UC1-Hematocrit-20250205"> </a><a name="hcUC1-Hematocrit-20250205"> </a><a name="UC1-Hematocrit-20250205-en-US"> </a><div style="display: inline-block; background-color: #d9e0e7; padding: 6px; margin: 4px; border: 1px solid #8da1b4; border-radius: 5px; line-height: 60%"><p style="margin-bottom: 0px">Language: de-CH</p></div><p><b>status</b>: Final</p><p><b>category</b>: <span title="Codes:{http://terminology.hl7.org/CodeSystem/observation-category laboratory}">Laboratory</span></p><p><b>code</b>: <span title="Codes:{http://loinc.org 4544-3}">Hematocrit [Volume Fraction] of Blood by Automated count</span></p><p><b>subject</b>: <a href="Patient-UC1-KatrinKinderlieb.html">Frau Katrin Kinderlieb Female, DoB: 1986-01-18 ( urn:oid:2.16.756.5.30.1.123.100.1.1.1#80756015090002647590)</a></p><p><b>effective</b>: 2025-02-05</p><p><b>performer</b>: <a href="Organization-UC1-LaborPipette.html">Organization Labor Pipette</a></p><p><b>value</b>: 46 percent<span style="background: LightGoldenRodYellow"> (Details: UCUM  code% = '%')</span></p></div>
        </text>
        <status value="final"/>
        <category>
          <coding>
            <system value="http://terminology.hl7.org/CodeSystem/observation-category"/>
            <code value="laboratory"/>
            <display value="Laboratory"/>
          </coding>
        </category>
        <code>
          <coding>
            <system value="http://loinc.org"/>
            <code value="4544-3"/>
            <display value="Hematocrit [Volume Fraction] of Blood by Automated count"/>
          </coding>
        </code>
        <subject>
          <reference value="Patient/UC1-KatrinKinderlieb"/>
        </subject>
        <effectiveDateTime value="2025-02-05"/>
        <performer>
          <reference value="Organization/UC1-LaborPipette"/>
        </performer>
        <valueQuantity>
          <value value="46"/>
          <unit value="percent"/>
          <system value="http://unitsofmeasure.org"/>
          <code value="%"/>
        </valueQuantity>
      </Observation>
    </resource>
  </entry>
  <entry>
    <fullUrl value="http://test.fhir.ch/r4/Observation/UC1-Platelets-20250205"/>
    <resource>
      <Observation>
        <id value="UC1-Platelets-20250205"/>
        <language value="de-CH"/>
        <text>
          <status value="generated"/><div xmlns="http://www.w3.org/1999/xhtml" xml:lang="de-CH" lang="de-CH"><a name="Observation_UC1-Platelets-20250205"> </a><p class="res-header-id"><b>Generated Narrative: Observation UC1-Platelets-20250205</b></p><a name="UC1-Platelets-20250205"> </a><a name="hcUC1-Platelets-20250205"> </a><a name="UC1-Platelets-20250205-en-US"> </a><div style="display: inline-block; background-color: #d9e0e7; padding: 6px; margin: 4px; border: 1px solid #8da1b4; border-radius: 5px; line-height: 60%"><p style="margin-bottom: 0px">Language: de-CH</p></div><p><b>status</b>: Final</p><p><b>category</b>: <span title="Codes:{http://terminology.hl7.org/CodeSystem/observation-category laboratory}">Laboratory</span></p><p><b>code</b>: <span title="Codes:{http://loinc.org 777-3}">Platelets [#/volume] in Blood by Automated count</span></p><p><b>subject</b>: <a href="Patient-UC1-KatrinKinderlieb.html">Frau Katrin Kinderlieb Female, DoB: 1986-01-18 ( urn:oid:2.16.756.5.30.1.123.100.1.1.1#80756015090002647590)</a></p><p><b>effective</b>: 2025-02-05</p><p><b>performer</b>: <a href="Organization-UC1-LaborPipette.html">Organization Labor Pipette</a></p><p><b>value</b>: 130 Thousands Per MicroLiter<span style="background: LightGoldenRodYellow"> (Details: UCUM  code10*3/uL = '10*3/uL')</span></p></div>
        </text>
        <status value="final"/>
        <category>
          <coding>
            <system value="http://terminology.hl7.org/CodeSystem/observation-category"/>
            <code value="laboratory"/>
            <display value="Laboratory"/>
          </coding>
        </category>
        <code>
          <coding>
            <system value="http://loinc.org"/>
            <code value="777-3"/>
            <display value="Platelets [#/volume] in Blood by Automated count"/>
          </coding>
        </code>
        <subject>
          <reference value="Patient/UC1-KatrinKinderlieb"/>
        </subject>
        <effectiveDateTime value="2025-02-05"/>
        <performer>
          <reference value="Organization/UC1-LaborPipette"/>
        </performer>
        <valueQuantity>
          <value value="130"/>
          <unit value="Thousands Per MicroLiter"/>
          <system value="http://unitsofmeasure.org"/>
          <code value="10*3/uL"/>
        </valueQuantity>
      </Observation>
    </resource>
  </entry>
  <entry>
    <fullUrl value="http://test.fhir.ch/r4/Encounter/UC1-EncounterMother20250205"/>
    <resource>
      <Encounter>
        <id value="UC1-EncounterMother20250205"/>
        <language value="de-CH"/>
        <text>
          <status value="generated"/><div xmlns="http://www.w3.org/1999/xhtml" xml:lang="de-CH" lang="de-CH"><a name="Encounter_UC1-EncounterMother20250205"> </a><p class="res-header-id"><b>Generated Narrative: Encounter UC1-EncounterMother20250205</b></p><a name="UC1-EncounterMother20250205"> </a><a name="hcUC1-EncounterMother20250205"> </a><a name="UC1-EncounterMother20250205-en-US"> </a><div style="display: inline-block; background-color: #d9e0e7; padding: 6px; margin: 4px; border: 1px solid #8da1b4; border-radius: 5px; line-height: 60%"><p style="margin-bottom: 0px">Language: de-CH</p></div><p><b>status</b>: Finished</p><p><b>class</b>: <a href="http://terminology.hl7.org/6.2.0/CodeSystem-v3-ActCode.html#v3-ActCode-AMB">ActCode AMB</a>: ambulatory</p><p><b>subject</b>: <a href="Patient-UC1-KatrinKinderlieb.html">Frau Katrin Kinderlieb Female, DoB: 1986-01-18 ( urn:oid:2.16.756.5.30.1.123.100.1.1.1#80756015090002647590)</a></p><h3>Participants</h3><table class="grid"><tr><td style="display: none">-</td><td><b>Individual</b></td></tr><tr><td style="display: none">*</td><td><a href="PractitionerRole-UC1-PetraSectionataAtFrauenzimmer.html">PractitionerRole Arzt / Ärztin</a></td></tr></table><p><b>period</b>: 2025-02-05 --&gt; 2025-02-05</p></div>
        </text>
        <status value="finished"/>
        <class>
          <system value="http://terminology.hl7.org/CodeSystem/v3-ActCode"/>
          <code value="AMB"/>
          <display value="ambulatory"/>
        </class>
        <subject>
          <reference value="Patient/UC1-KatrinKinderlieb"/>
        </subject>
        <participant>
          <individual>
            <reference value="PractitionerRole/UC1-PetraSectionataAtFrauenzimmer"/>
          </individual>
        </participant>
        <period>
          <start value="2025-02-05"/>
          <end value="2025-02-05"/>
        </period>
      </Encounter>
    </resource>
  </entry>
  <entry>
    <fullUrl value="http://test.fhir.ch/r4/Encounter/UC1-EncounterMother20250123"/>
    <resource>
      <Encounter>
        <id value="UC1-EncounterMother20250123"/>
        <language value="de-CH"/>
        <text>
          <status value="extensions"/><div xmlns="http://www.w3.org/1999/xhtml" xml:lang="de-CH" lang="de-CH"><a name="Encounter_UC1-EncounterMother20250123"> </a><p class="res-header-id"><b>Generated Narrative: Encounter UC1-EncounterMother20250123</b></p><a name="UC1-EncounterMother20250123"> </a><a name="hcUC1-EncounterMother20250123"> </a><a name="UC1-EncounterMother20250123-en-US"> </a><div style="display: inline-block; background-color: #d9e0e7; padding: 6px; margin: 4px; border: 1px solid #8da1b4; border-radius: 5px; line-height: 60%"><p style="margin-bottom: 0px">Language: de-CH</p></div><p><b>CH EPREG Extension: Planned Next Pregnancy Visit</b>: 2025-02-05</p><p><b>CH EPREG Extension: Number</b>: 7</p><p><b>CH EPREG Extension: Note</b>: 'Bemerkung zur Untersuchung'</p><p><b>status</b>: Finished</p><p><b>class</b>: <a href="http://terminology.hl7.org/6.2.0/CodeSystem-v3-ActCode.html#v3-ActCode-AMB">ActCode AMB</a>: ambulatory</p><p><b>subject</b>: <a href="Patient-UC1-KatrinKinderlieb.html">Frau Katrin Kinderlieb Female, DoB: 1986-01-18 ( urn:oid:2.16.756.5.30.1.123.100.1.1.1#80756015090002647590)</a></p><h3>Participants</h3><table class="grid"><tr><td style="display: none">-</td><td><b>Individual</b></td></tr><tr><td style="display: none">*</td><td><a href="PractitionerRole-UC1-PetraSectionataAtFrauenzimmer.html">PractitionerRole Arzt / Ärztin</a></td></tr></table><p><b>period</b>: 2025-01-23 --&gt; 2025-01-23</p></div>
        </text>
        <extension url="http://fhir.ch/ig/ch-epreg/StructureDefinition/ch-epreg-ext-planned-next-preg-visit">
          <valueDateTime value="2025-02-05"/>
        </extension>
        <extension url="http://fhir.ch/ig/ch-epreg/StructureDefinition/ch-epreg-ext-number">
          <valuePositiveInt value="7"/>
        </extension>
        <extension url="http://fhir.ch/ig/ch-epreg/StructureDefinition/ch-epreg-ext-note">
          <valueString value="'Bemerkung zur Untersuchung'"/>
        </extension>
        <status value="finished"/>
        <class>
          <system value="http://terminology.hl7.org/CodeSystem/v3-ActCode"/>
          <code value="AMB"/>
          <display value="ambulatory"/>
        </class>
        <subject>
          <reference value="Patient/UC1-KatrinKinderlieb"/>
        </subject>
        <participant>
          <individual>
            <reference value="PractitionerRole/UC1-PetraSectionataAtFrauenzimmer"/>
          </individual>
        </participant>
        <period>
          <start value="2025-01-23"/>
          <end value="2025-01-23"/>
        </period>
      </Encounter>
    </resource>
  </entry>
  <entry>
    <fullUrl value="http://test.fhir.ch/r4/Encounter/UC1-EncounterChild20250205"/>
    <resource>
      <Encounter>
        <id value="UC1-EncounterChild20250205"/>
        <language value="de-CH"/>
        <text>
          <status value="generated"/><div xmlns="http://www.w3.org/1999/xhtml" xml:lang="de-CH" lang="de-CH"><a name="Encounter_UC1-EncounterChild20250205"> </a><p class="res-header-id"><b>Generated Narrative: Encounter UC1-EncounterChild20250205</b></p><a name="UC1-EncounterChild20250205"> </a><a name="hcUC1-EncounterChild20250205"> </a><a name="UC1-EncounterChild20250205-en-US"> </a><div style="display: inline-block; background-color: #d9e0e7; padding: 6px; margin: 4px; border: 1px solid #8da1b4; border-radius: 5px; line-height: 60%"><p style="margin-bottom: 0px">Language: de-CH</p></div><p><b>status</b>: Finished</p><p><b>class</b>: <a href="http://terminology.hl7.org/6.2.0/CodeSystem-v3-ActCode.html#v3-ActCode-AMB">ActCode AMB</a>: ambulatory</p><p><b>subject</b>: <a href="Patient-UC1-Child.html">Anonymous Patient Female, DoB Unknown ( Patient internal identifier: A)</a></p><h3>Participants</h3><table class="grid"><tr><td style="display: none">-</td><td><b>Individual</b></td></tr><tr><td style="display: none">*</td><td><a href="PractitionerRole-UC1-PetraSectionataAtFrauenzimmer.html">PractitionerRole Arzt / Ärztin</a></td></tr></table><p><b>period</b>: 2025-02-05 --&gt; 2025-02-05</p><p><b>partOf</b>: <a href="Encounter-UC1-EncounterMother20250205.html">Encounter: status = finished; class = ambulatory (ActCode#AMB); period = 2025-02-05 --&gt; 2025-02-05</a></p></div>
        </text>
        <status value="finished"/>
        <class>
          <system value="http://terminology.hl7.org/CodeSystem/v3-ActCode"/>
          <code value="AMB"/>
          <display value="ambulatory"/>
        </class>
        <subject>
          <reference value="Patient/UC1-Child"/>
        </subject>
        <participant>
          <individual>
            <reference value="PractitionerRole/UC1-PetraSectionataAtFrauenzimmer"/>
          </individual>
        </participant>
        <period>
          <start value="2025-02-05"/>
          <end value="2025-02-05"/>
        </period>
        <partOf>
          <reference value="Encounter/UC1-EncounterMother20250205"/>
        </partOf>
      </Encounter>
    </resource>
  </entry>
  <entry>
    <fullUrl value="http://test.fhir.ch/r4/Encounter/UC1-EncounterChild20250123"/>
    <resource>
      <Encounter>
        <id value="UC1-EncounterChild20250123"/>
        <language value="de-CH"/>
        <text>
          <status value="generated"/><div xmlns="http://www.w3.org/1999/xhtml" xml:lang="de-CH" lang="de-CH"><a name="Encounter_UC1-EncounterChild20250123"> </a><p class="res-header-id"><b>Generated Narrative: Encounter UC1-EncounterChild20250123</b></p><a name="UC1-EncounterChild20250123"> </a><a name="hcUC1-EncounterChild20250123"> </a><a name="UC1-EncounterChild20250123-en-US"> </a><div style="display: inline-block; background-color: #d9e0e7; padding: 6px; margin: 4px; border: 1px solid #8da1b4; border-radius: 5px; line-height: 60%"><p style="margin-bottom: 0px">Language: de-CH</p></div><p><b>status</b>: Finished</p><p><b>class</b>: <a href="http://terminology.hl7.org/6.2.0/CodeSystem-v3-ActCode.html#v3-ActCode-AMB">ActCode AMB</a>: ambulatory</p><p><b>subject</b>: <a href="Patient-UC1-Child.html">Anonymous Patient Female, DoB Unknown ( Patient internal identifier: A)</a></p><h3>Participants</h3><table class="grid"><tr><td style="display: none">-</td><td><b>Individual</b></td></tr><tr><td style="display: none">*</td><td><a href="PractitionerRole-UC1-PetraSectionataAtFrauenzimmer.html">PractitionerRole Arzt / Ärztin</a></td></tr></table><p><b>period</b>: 2025-01-23 --&gt; 2025-01-23</p><p><b>partOf</b>: <a href="Encounter-UC1-EncounterMother20250123.html">Encounter: extension = 2025-02-05,7,'Bemerkung zur Untersuchung'; status = finished; class = ambulatory (ActCode#AMB); period = 2025-01-23 --&gt; 2025-01-23</a></p></div>
        </text>
        <status value="finished"/>
        <class>
          <system value="http://terminology.hl7.org/CodeSystem/v3-ActCode"/>
          <code value="AMB"/>
          <display value="ambulatory"/>
        </class>
        <subject>
          <reference value="Patient/UC1-Child"/>
        </subject>
        <participant>
          <individual>
            <reference value="PractitionerRole/UC1-PetraSectionataAtFrauenzimmer"/>
          </individual>
        </participant>
        <period>
          <start value="2025-01-23"/>
          <end value="2025-01-23"/>
        </period>
        <partOf>
          <reference value="Encounter/UC1-EncounterMother20250123"/>
        </partOf>
      </Encounter>
    </resource>
  </entry>
  <entry>
    <fullUrl value="http://test.fhir.ch/r4/Observation/UC1-GestationalAgeInDays-20250205"/>
    <resource>
      <Observation>
        <id value="UC1-GestationalAgeInDays-20250205"/>
        <language value="de-CH"/>
        <text>
          <status value="generated"/><div xmlns="http://www.w3.org/1999/xhtml" xml:lang="de-CH" lang="de-CH"><a name="Observation_UC1-GestationalAgeInDays-20250205"> </a><p class="res-header-id"><b>Generated Narrative: Observation UC1-GestationalAgeInDays-20250205</b></p><a name="UC1-GestationalAgeInDays-20250205"> </a><a name="hcUC1-GestationalAgeInDays-20250205"> </a><a name="UC1-GestationalAgeInDays-20250205-en-US"> </a><div style="display: inline-block; background-color: #d9e0e7; padding: 6px; margin: 4px; border: 1px solid #8da1b4; border-radius: 5px; line-height: 60%"><p style="margin-bottom: 0px">Language: de-CH</p></div><p><b>status</b>: Final</p><p><b>code</b>: <span title="Codes:{http://loinc.org 49052-4}">Gestational age in days</span></p><p><b>subject</b>: <a href="Patient-UC1-KatrinKinderlieb.html">Frau Katrin Kinderlieb Female, DoB: 1986-01-18 ( urn:oid:2.16.756.5.30.1.123.100.1.1.1#80756015090002647590)</a></p><p><b>encounter</b>: <a href="Encounter-UC1-EncounterMother20250205.html">Encounter: status = finished; class = ambulatory (ActCode#AMB); period = 2025-02-05 --&gt; 2025-02-05</a></p><p><b>effective</b>: 2025-02-05</p><p><b>performer</b>: <a href="PractitionerRole-UC1-PetraSectionataAtFrauenzimmer.html">PractitionerRole Arzt / Ärztin</a></p><p><b>value</b>: 37 day<span style="background: LightGoldenRodYellow"> (Details: UCUM  coded = 'd')</span></p></div>
        </text>
        <status value="final"/>
        <code>
          <coding>
            <system value="http://loinc.org"/>
            <code value="49052-4"/>
            <display value="Gestational age in days"/>
          </coding>
        </code>
        <subject>
          <reference value="Patient/UC1-KatrinKinderlieb"/>
        </subject>
        <encounter>
          <reference value="Encounter/UC1-EncounterMother20250205"/>
        </encounter>
        <effectiveDateTime value="2025-02-05"/>
        <performer>
          <reference value="PractitionerRole/UC1-PetraSectionataAtFrauenzimmer"/>
        </performer>
        <valueQuantity>
          <value value="37"/>
          <unit value="day"/>
          <system value="http://unitsofmeasure.org"/>
          <code value="d"/>
        </valueQuantity>
      </Observation>
    </resource>
  </entry>
  <entry>
    <fullUrl value="http://test.fhir.ch/r4/Observation/UC1-GestationalAgeInDays-20250123"/>
    <resource>
      <Observation>
        <id value="UC1-GestationalAgeInDays-20250123"/>
        <language value="de-CH"/>
        <text>
          <status value="generated"/><div xmlns="http://www.w3.org/1999/xhtml" xml:lang="de-CH" lang="de-CH"><a name="Observation_UC1-GestationalAgeInDays-20250123"> </a><p class="res-header-id"><b>Generated Narrative: Observation UC1-GestationalAgeInDays-20250123</b></p><a name="UC1-GestationalAgeInDays-20250123"> </a><a name="hcUC1-GestationalAgeInDays-20250123"> </a><a name="UC1-GestationalAgeInDays-20250123-en-US"> </a><div style="display: inline-block; background-color: #d9e0e7; padding: 6px; margin: 4px; border: 1px solid #8da1b4; border-radius: 5px; line-height: 60%"><p style="margin-bottom: 0px">Language: de-CH</p></div><p><b>status</b>: Final</p><p><b>code</b>: <span title="Codes:{http://loinc.org 49052-4}">Gestational age in days</span></p><p><b>subject</b>: <a href="Patient-UC1-KatrinKinderlieb.html">Frau Katrin Kinderlieb Female, DoB: 1986-01-18 ( urn:oid:2.16.756.5.30.1.123.100.1.1.1#80756015090002647590)</a></p><p><b>encounter</b>: <a href="Encounter-UC1-EncounterMother20250123.html">Encounter: extension = 2025-02-05,7,'Bemerkung zur Untersuchung'; status = finished; class = ambulatory (ActCode#AMB); period = 2025-01-23 --&gt; 2025-01-23</a></p><p><b>effective</b>: 2025-01-23</p><p><b>performer</b>: <a href="PractitionerRole-UC1-PetraSectionataAtFrauenzimmer.html">PractitionerRole Arzt / Ärztin</a></p><p><b>value</b>: 35 day<span style="background: LightGoldenRodYellow"> (Details: UCUM  coded = 'd')</span></p></div>
        </text>
        <status value="final"/>
        <code>
          <coding>
            <system value="http://loinc.org"/>
            <code value="49052-4"/>
            <display value="Gestational age in days"/>
          </coding>
        </code>
        <subject>
          <reference value="Patient/UC1-KatrinKinderlieb"/>
        </subject>
        <encounter>
          <reference value="Encounter/UC1-EncounterMother20250123"/>
        </encounter>
        <effectiveDateTime value="2025-01-23"/>
        <performer>
          <reference value="PractitionerRole/UC1-PetraSectionataAtFrauenzimmer"/>
        </performer>
        <valueQuantity>
          <value value="35"/>
          <unit value="day"/>
          <system value="http://unitsofmeasure.org"/>
          <code value="d"/>
        </valueQuantity>
      </Observation>
    </resource>
  </entry>
  <entry>
    <fullUrl value="http://test.fhir.ch/r4/Observation/UC1-BodyWeight-20250205"/>
    <resource>
      <Observation>
        <id value="UC1-BodyWeight-20250205"/>
        <language value="de-CH"/>
        <text>
          <status value="generated"/><div xmlns="http://www.w3.org/1999/xhtml" xml:lang="de-CH" lang="de-CH"><a name="Observation_UC1-BodyWeight-20250205"> </a><p class="res-header-id"><b>Generated Narrative: Observation UC1-BodyWeight-20250205</b></p><a name="UC1-BodyWeight-20250205"> </a><a name="hcUC1-BodyWeight-20250205"> </a><a name="UC1-BodyWeight-20250205-en-US"> </a><div style="display: inline-block; background-color: #d9e0e7; padding: 6px; margin: 4px; border: 1px solid #8da1b4; border-radius: 5px; line-height: 60%"><p style="margin-bottom: 0px">Language: de-CH</p></div><p><b>status</b>: Final</p><p><b>category</b>: <span title="Codes:{http://terminology.hl7.org/CodeSystem/observation-category vital-signs}">Vital Signs</span></p><p><b>code</b>: <span title="Codes:{http://loinc.org 29463-7}">Body weight</span></p><p><b>subject</b>: <a href="Patient-UC1-KatrinKinderlieb.html">Frau Katrin Kinderlieb Female, DoB: 1986-01-18 ( urn:oid:2.16.756.5.30.1.123.100.1.1.1#80756015090002647590)</a></p><p><b>encounter</b>: <a href="Encounter-UC1-EncounterMother20250205.html">Encounter: status = finished; class = ambulatory (ActCode#AMB); period = 2025-02-05 --&gt; 2025-02-05</a></p><p><b>effective</b>: 2025-02-05</p><p><b>performer</b>: <a href="PractitionerRole-UC1-PetraSectionataAtFrauenzimmer.html">PractitionerRole Arzt / Ärztin</a></p><p><b>value</b>: 82 kilogram<span style="background: LightGoldenRodYellow"> (Details: UCUM  codekg = 'kg')</span></p></div>
        </text>
        <status value="final"/>
        <category>
          <coding>
            <system value="http://terminology.hl7.org/CodeSystem/observation-category"/>
            <code value="vital-signs"/>
            <display value="Vital Signs"/>
          </coding>
        </category>
        <code>
          <coding>
            <system value="http://loinc.org"/>
            <code value="29463-7"/>
            <display value="Body weight"/>
          </coding>
        </code>
        <subject>
          <reference value="Patient/UC1-KatrinKinderlieb"/>
        </subject>
        <encounter>
          <reference value="Encounter/UC1-EncounterMother20250205"/>
        </encounter>
        <effectiveDateTime value="2025-02-05"/>
        <performer>
          <reference value="PractitionerRole/UC1-PetraSectionataAtFrauenzimmer"/>
        </performer>
        <valueQuantity>
          <value value="82"/>
          <unit value="kilogram"/>
          <system value="http://unitsofmeasure.org"/>
          <code value="kg"/>
        </valueQuantity>
      </Observation>
    </resource>
  </entry>
  <entry>
    <fullUrl value="http://test.fhir.ch/r4/Observation/UC1-BodyWeight-20250123"/>
    <resource>
      <Observation>
        <id value="UC1-BodyWeight-20250123"/>
        <language value="de-CH"/>
        <text>
          <status value="generated"/><div xmlns="http://www.w3.org/1999/xhtml" xml:lang="de-CH" lang="de-CH"><a name="Observation_UC1-BodyWeight-20250123"> </a><p class="res-header-id"><b>Generated Narrative: Observation UC1-BodyWeight-20250123</b></p><a name="UC1-BodyWeight-20250123"> </a><a name="hcUC1-BodyWeight-20250123"> </a><a name="UC1-BodyWeight-20250123-en-US"> </a><div style="display: inline-block; background-color: #d9e0e7; padding: 6px; margin: 4px; border: 1px solid #8da1b4; border-radius: 5px; line-height: 60%"><p style="margin-bottom: 0px">Language: de-CH</p></div><p><b>status</b>: Final</p><p><b>category</b>: <span title="Codes:{http://terminology.hl7.org/CodeSystem/observation-category vital-signs}">Vital Signs</span></p><p><b>code</b>: <span title="Codes:{http://loinc.org 29463-7}">Body weight</span></p><p><b>subject</b>: <a href="Patient-UC1-KatrinKinderlieb.html">Frau Katrin Kinderlieb Female, DoB: 1986-01-18 ( urn:oid:2.16.756.5.30.1.123.100.1.1.1#80756015090002647590)</a></p><p><b>encounter</b>: <a href="Encounter-UC1-EncounterMother20250123.html">Encounter: extension = 2025-02-05,7,'Bemerkung zur Untersuchung'; status = finished; class = ambulatory (ActCode#AMB); period = 2025-01-23 --&gt; 2025-01-23</a></p><p><b>effective</b>: 2025-01-23</p><p><b>performer</b>: <a href="PractitionerRole-UC1-PetraSectionataAtFrauenzimmer.html">PractitionerRole Arzt / Ärztin</a></p><p><b>value</b>: 80.6 kilogram<span style="background: LightGoldenRodYellow"> (Details: UCUM  codekg = 'kg')</span></p></div>
        </text>
        <status value="final"/>
        <category>
          <coding>
            <system value="http://terminology.hl7.org/CodeSystem/observation-category"/>
            <code value="vital-signs"/>
            <display value="Vital Signs"/>
          </coding>
        </category>
        <code>
          <coding>
            <system value="http://loinc.org"/>
            <code value="29463-7"/>
            <display value="Body weight"/>
          </coding>
        </code>
        <subject>
          <reference value="Patient/UC1-KatrinKinderlieb"/>
        </subject>
        <encounter>
          <reference value="Encounter/UC1-EncounterMother20250123"/>
        </encounter>
        <effectiveDateTime value="2025-01-23"/>
        <performer>
          <reference value="PractitionerRole/UC1-PetraSectionataAtFrauenzimmer"/>
        </performer>
        <valueQuantity>
          <value value="80.6"/>
          <unit value="kilogram"/>
          <system value="http://unitsofmeasure.org"/>
          <code value="kg"/>
        </valueQuantity>
      </Observation>
    </resource>
  </entry>
  <entry>
    <fullUrl value="http://test.fhir.ch/r4/Observation/UC1-WeightGain-20250205"/>
    <resource>
      <Observation>
        <id value="UC1-WeightGain-20250205"/>
        <language value="de-CH"/>
        <text>
          <status value="generated"/><div xmlns="http://www.w3.org/1999/xhtml" xml:lang="de-CH" lang="de-CH"><a name="Observation_UC1-WeightGain-20250205"> </a><p class="res-header-id"><b>Generated Narrative: Observation UC1-WeightGain-20250205</b></p><a name="UC1-WeightGain-20250205"> </a><a name="hcUC1-WeightGain-20250205"> </a><a name="UC1-WeightGain-20250205-en-US"> </a><div style="display: inline-block; background-color: #d9e0e7; padding: 6px; margin: 4px; border: 1px solid #8da1b4; border-radius: 5px; line-height: 60%"><p style="margin-bottom: 0px">Language: de-CH</p></div><p><b>status</b>: Final</p><p><b>code</b>: <span title="Codes:{http://snomed.info/sct 816161008}">Measured gestational weight gain (observable entity)</span></p><p><b>subject</b>: <a href="Patient-UC1-KatrinKinderlieb.html">Frau Katrin Kinderlieb Female, DoB: 1986-01-18 ( urn:oid:2.16.756.5.30.1.123.100.1.1.1#80756015090002647590)</a></p><p><b>encounter</b>: <a href="Encounter-UC1-EncounterMother20250205.html">Encounter: status = finished; class = ambulatory (ActCode#AMB); period = 2025-02-05 --&gt; 2025-02-05</a></p><p><b>effective</b>: 2025-02-05</p><p><b>performer</b>: <a href="PractitionerRole-UC1-PetraSectionataAtFrauenzimmer.html">PractitionerRole Arzt / Ärztin</a></p><p><b>value</b>: 12.5 kilogram<span style="background: LightGoldenRodYellow"> (Details: UCUM  codekg = 'kg')</span></p><p><b>derivedFrom</b>: <a href="Observation-UC1-BodyWeight-20250205.html">Observation Body weight</a></p></div>
        </text>
        <status value="final"/>
        <code>
          <coding>
            <system value="http://snomed.info/sct"/>
            <code value="816161008"/>
            <display value="Measured gestational weight gain (observable entity)"/>
          </coding>
        </code>
        <subject>
          <reference value="Patient/UC1-KatrinKinderlieb"/>
        </subject>
        <encounter>
          <reference value="Encounter/UC1-EncounterMother20250205"/>
        </encounter>
        <effectiveDateTime value="2025-02-05"/>
        <performer>
          <reference value="PractitionerRole/UC1-PetraSectionataAtFrauenzimmer"/>
        </performer>
        <valueQuantity>
          <value value="12.5"/>
          <unit value="kilogram"/>
          <system value="http://unitsofmeasure.org"/>
          <code value="kg"/>
        </valueQuantity>
        <derivedFrom>
          <reference value="Observation/UC1-BodyWeight-20250205"/>
        </derivedFrom>
      </Observation>
    </resource>
  </entry>
  <entry>
    <fullUrl value="http://test.fhir.ch/r4/Observation/UC1-WeightGain-20250123"/>
    <resource>
      <Observation>
        <id value="UC1-WeightGain-20250123"/>
        <language value="de-CH"/>
        <text>
          <status value="generated"/><div xmlns="http://www.w3.org/1999/xhtml" xml:lang="de-CH" lang="de-CH"><a name="Observation_UC1-WeightGain-20250123"> </a><p class="res-header-id"><b>Generated Narrative: Observation UC1-WeightGain-20250123</b></p><a name="UC1-WeightGain-20250123"> </a><a name="hcUC1-WeightGain-20250123"> </a><a name="UC1-WeightGain-20250123-en-US"> </a><div style="display: inline-block; background-color: #d9e0e7; padding: 6px; margin: 4px; border: 1px solid #8da1b4; border-radius: 5px; line-height: 60%"><p style="margin-bottom: 0px">Language: de-CH</p></div><p><b>status</b>: Final</p><p><b>code</b>: <span title="Codes:{http://snomed.info/sct 816161008}">Measured gestational weight gain (observable entity)</span></p><p><b>subject</b>: <a href="Patient-UC1-KatrinKinderlieb.html">Frau Katrin Kinderlieb Female, DoB: 1986-01-18 ( urn:oid:2.16.756.5.30.1.123.100.1.1.1#80756015090002647590)</a></p><p><b>encounter</b>: <a href="Encounter-UC1-EncounterMother20250123.html">Encounter: extension = 2025-02-05,7,'Bemerkung zur Untersuchung'; status = finished; class = ambulatory (ActCode#AMB); period = 2025-01-23 --&gt; 2025-01-23</a></p><p><b>effective</b>: 2025-01-23</p><p><b>performer</b>: <a href="PractitionerRole-UC1-PetraSectionataAtFrauenzimmer.html">PractitionerRole Arzt / Ärztin</a></p><p><b>value</b>: 11.1 kilogram<span style="background: LightGoldenRodYellow"> (Details: UCUM  codekg = 'kg')</span></p><p><b>derivedFrom</b>: <a href="Observation-UC1-BodyWeight-20250123.html">Observation Body weight</a></p></div>
        </text>
        <status value="final"/>
        <code>
          <coding>
            <system value="http://snomed.info/sct"/>
            <code value="816161008"/>
            <display value="Measured gestational weight gain (observable entity)"/>
          </coding>
        </code>
        <subject>
          <reference value="Patient/UC1-KatrinKinderlieb"/>
        </subject>
        <encounter>
          <reference value="Encounter/UC1-EncounterMother20250123"/>
        </encounter>
        <effectiveDateTime value="2025-01-23"/>
        <performer>
          <reference value="PractitionerRole/UC1-PetraSectionataAtFrauenzimmer"/>
        </performer>
        <valueQuantity>
          <value value="11.1"/>
          <unit value="kilogram"/>
          <system value="http://unitsofmeasure.org"/>
          <code value="kg"/>
        </valueQuantity>
        <derivedFrom>
          <reference value="Observation/UC1-BodyWeight-20250123"/>
        </derivedFrom>
      </Observation>
    </resource>
  </entry>
  <entry>
    <fullUrl value="http://test.fhir.ch/r4/Observation/UC1-BloodPressure-20250205"/>
    <resource>
      <Observation>
        <id value="UC1-BloodPressure-20250205"/>
        <language value="de-CH"/>
        <text>
          <status value="generated"/><div xmlns="http://www.w3.org/1999/xhtml" xml:lang="de-CH" lang="de-CH"><a name="Observation_UC1-BloodPressure-20250205"> </a><p class="res-header-id"><b>Generated Narrative: Observation UC1-BloodPressure-20250205</b></p><a name="UC1-BloodPressure-20250205"> </a><a name="hcUC1-BloodPressure-20250205"> </a><a name="UC1-BloodPressure-20250205-en-US"> </a><div style="display: inline-block; background-color: #d9e0e7; padding: 6px; margin: 4px; border: 1px solid #8da1b4; border-radius: 5px; line-height: 60%"><p style="margin-bottom: 0px">Language: de-CH</p></div><p><b>status</b>: Final</p><p><b>category</b>: <span title="Codes:{http://terminology.hl7.org/CodeSystem/observation-category vital-signs}">Vital Signs</span></p><p><b>code</b>: <span title="Codes:{http://loinc.org 85354-9}">Blood pressure panel with all children optional</span></p><p><b>subject</b>: <a href="Patient-UC1-KatrinKinderlieb.html">Frau Katrin Kinderlieb Female, DoB: 1986-01-18 ( urn:oid:2.16.756.5.30.1.123.100.1.1.1#80756015090002647590)</a></p><p><b>encounter</b>: <a href="Encounter-UC1-EncounterMother20250205.html">Encounter: status = finished; class = ambulatory (ActCode#AMB); period = 2025-02-05 --&gt; 2025-02-05</a></p><p><b>effective</b>: 2025-02-05</p><p><b>performer</b>: <a href="PractitionerRole-UC1-PetraSectionataAtFrauenzimmer.html">PractitionerRole Arzt / Ärztin</a></p><blockquote><p><b>component</b></p><p><b>code</b>: <span title="Codes:{http://loinc.org 8480-6}">Systolic blood pressure</span></p><p><b>value</b>: 160 millimeter of mercury<span style="background: LightGoldenRodYellow"> (Details: UCUM  codemm[Hg] = 'mm[Hg]')</span></p></blockquote><blockquote><p><b>component</b></p><p><b>code</b>: <span title="Codes:{http://loinc.org 8462-4}">Diastolic blood pressure</span></p><p><b>value</b>: 100 millimeter of mercury<span style="background: LightGoldenRodYellow"> (Details: UCUM  codemm[Hg] = 'mm[Hg]')</span></p></blockquote></div>
        </text>
        <status value="final"/>
        <category>
          <coding>
            <system value="http://terminology.hl7.org/CodeSystem/observation-category"/>
            <code value="vital-signs"/>
            <display value="Vital Signs"/>
          </coding>
        </category>
        <code>
          <coding>
            <system value="http://loinc.org"/>
            <code value="85354-9"/>
            <display value="Blood pressure panel with all children optional"/>
          </coding>
        </code>
        <subject>
          <reference value="Patient/UC1-KatrinKinderlieb"/>
        </subject>
        <encounter>
          <reference value="Encounter/UC1-EncounterMother20250205"/>
        </encounter>
        <effectiveDateTime value="2025-02-05"/>
        <performer>
          <reference value="PractitionerRole/UC1-PetraSectionataAtFrauenzimmer"/>
        </performer>
        <component>
          <code>
            <coding>
              <system value="http://loinc.org"/>
              <code value="8480-6"/>
              <display value="Systolic blood pressure"/>
            </coding>
          </code>
          <valueQuantity>
            <value value="160"/>
            <unit value="millimeter of mercury"/>
            <system value="http://unitsofmeasure.org"/>
            <code value="mm[Hg]"/>
          </valueQuantity>
        </component>
        <component>
          <code>
            <coding>
              <system value="http://loinc.org"/>
              <code value="8462-4"/>
              <display value="Diastolic blood pressure"/>
            </coding>
          </code>
          <valueQuantity>
            <value value="100"/>
            <unit value="millimeter of mercury"/>
            <system value="http://unitsofmeasure.org"/>
            <code value="mm[Hg]"/>
          </valueQuantity>
        </component>
      </Observation>
    </resource>
  </entry>
  <entry>
    <fullUrl value="http://test.fhir.ch/r4/Observation/UC1-BloodPressure-20250123"/>
    <resource>
      <Observation>
        <id value="UC1-BloodPressure-20250123"/>
        <language value="de-CH"/>
        <text>
          <status value="generated"/><div xmlns="http://www.w3.org/1999/xhtml" xml:lang="de-CH" lang="de-CH"><a name="Observation_UC1-BloodPressure-20250123"> </a><p class="res-header-id"><b>Generated Narrative: Observation UC1-BloodPressure-20250123</b></p><a name="UC1-BloodPressure-20250123"> </a><a name="hcUC1-BloodPressure-20250123"> </a><a name="UC1-BloodPressure-20250123-en-US"> </a><div style="display: inline-block; background-color: #d9e0e7; padding: 6px; margin: 4px; border: 1px solid #8da1b4; border-radius: 5px; line-height: 60%"><p style="margin-bottom: 0px">Language: de-CH</p></div><p><b>status</b>: Final</p><p><b>category</b>: <span title="Codes:{http://terminology.hl7.org/CodeSystem/observation-category vital-signs}">Vital Signs</span></p><p><b>code</b>: <span title="Codes:{http://loinc.org 85354-9}">Blood pressure panel with all children optional</span></p><p><b>subject</b>: <a href="Patient-UC1-KatrinKinderlieb.html">Frau Katrin Kinderlieb Female, DoB: 1986-01-18 ( urn:oid:2.16.756.5.30.1.123.100.1.1.1#80756015090002647590)</a></p><p><b>encounter</b>: <a href="Encounter-UC1-EncounterMother20250123.html">Encounter: extension = 2025-02-05,7,'Bemerkung zur Untersuchung'; status = finished; class = ambulatory (ActCode#AMB); period = 2025-01-23 --&gt; 2025-01-23</a></p><p><b>effective</b>: 2025-01-23</p><p><b>performer</b>: <a href="PractitionerRole-UC1-PetraSectionataAtFrauenzimmer.html">PractitionerRole Arzt / Ärztin</a></p><blockquote><p><b>component</b></p><p><b>code</b>: <span title="Codes:{http://loinc.org 8480-6}">Systolic blood pressure</span></p><p><b>value</b>: 120 millimeter of mercury<span style="background: LightGoldenRodYellow"> (Details: UCUM  codemm[Hg] = 'mm[Hg]')</span></p></blockquote><blockquote><p><b>component</b></p><p><b>code</b>: <span title="Codes:{http://loinc.org 8462-4}">Diastolic blood pressure</span></p><p><b>value</b>: 80 millimeter of mercury<span style="background: LightGoldenRodYellow"> (Details: UCUM  codemm[Hg] = 'mm[Hg]')</span></p></blockquote></div>
        </text>
        <status value="final"/>
        <category>
          <coding>
            <system value="http://terminology.hl7.org/CodeSystem/observation-category"/>
            <code value="vital-signs"/>
            <display value="Vital Signs"/>
          </coding>
        </category>
        <code>
          <coding>
            <system value="http://loinc.org"/>
            <code value="85354-9"/>
            <display value="Blood pressure panel with all children optional"/>
          </coding>
        </code>
        <subject>
          <reference value="Patient/UC1-KatrinKinderlieb"/>
        </subject>
        <encounter>
          <reference value="Encounter/UC1-EncounterMother20250123"/>
        </encounter>
        <effectiveDateTime value="2025-01-23"/>
        <performer>
          <reference value="PractitionerRole/UC1-PetraSectionataAtFrauenzimmer"/>
        </performer>
        <component>
          <code>
            <coding>
              <system value="http://loinc.org"/>
              <code value="8480-6"/>
              <display value="Systolic blood pressure"/>
            </coding>
          </code>
          <valueQuantity>
            <value value="120"/>
            <unit value="millimeter of mercury"/>
            <system value="http://unitsofmeasure.org"/>
            <code value="mm[Hg]"/>
          </valueQuantity>
        </component>
        <component>
          <code>
            <coding>
              <system value="http://loinc.org"/>
              <code value="8462-4"/>
              <display value="Diastolic blood pressure"/>
            </coding>
          </code>
          <valueQuantity>
            <value value="80"/>
            <unit value="millimeter of mercury"/>
            <system value="http://unitsofmeasure.org"/>
            <code value="mm[Hg]"/>
          </valueQuantity>
        </component>
      </Observation>
    </resource>
  </entry>
  <entry>
    <fullUrl value="http://test.fhir.ch/r4/Observation/UC1-UrineFinding-20250205"/>
    <resource>
      <Observation>
        <id value="UC1-UrineFinding-20250205"/>
        <language value="de-CH"/>
        <text>
          <status value="generated"/><div xmlns="http://www.w3.org/1999/xhtml" xml:lang="de-CH" lang="de-CH"><a name="Observation_UC1-UrineFinding-20250205"> </a><p class="res-header-id"><b>Generated Narrative: Observation UC1-UrineFinding-20250205</b></p><a name="UC1-UrineFinding-20250205"> </a><a name="hcUC1-UrineFinding-20250205"> </a><a name="UC1-UrineFinding-20250205-en-US"> </a><div style="display: inline-block; background-color: #d9e0e7; padding: 6px; margin: 4px; border: 1px solid #8da1b4; border-radius: 5px; line-height: 60%"><p style="margin-bottom: 0px">Language: de-CH</p></div><p><b>status</b>: Final</p><p><b>code</b>: <span title="Codes:{http://snomed.info/sct 417597005}">Urine dipstick test finding (finding)</span></p><p><b>subject</b>: <a href="Patient-UC1-KatrinKinderlieb.html">Frau Katrin Kinderlieb Female, DoB: 1986-01-18 ( urn:oid:2.16.756.5.30.1.123.100.1.1.1#80756015090002647590)</a></p><p><b>encounter</b>: <a href="Encounter-UC1-EncounterMother20250205.html">Encounter: status = finished; class = ambulatory (ActCode#AMB); period = 2025-02-05 --&gt; 2025-02-05</a></p><p><b>effective</b>: 2025-02-05</p><p><b>performer</b>: <a href="PractitionerRole-UC1-PetraSectionataAtFrauenzimmer.html">PractitionerRole Arzt / Ärztin</a></p><blockquote><p><b>component</b></p><p><b>code</b>: <span title="Codes:{http://loinc.org 25428-4}">Glucose [Presence] in Urine by Test strip</span></p><p><b>value</b>: Zucker positiv</p></blockquote><blockquote><p><b>component</b></p><p><b>code</b>: <span title="Codes:{http://loinc.org 5802-4}">Nitrite [Presence] in Urine by Test strip</span></p><p><b>value</b>: Nitrit positiv</p></blockquote></div>
        </text>
        <status value="final"/>
        <code>
          <coding>
            <system value="http://snomed.info/sct"/>
            <code value="417597005"/>
            <display value="Urine dipstick test finding (finding)"/>
          </coding>
        </code>
        <subject>
          <reference value="Patient/UC1-KatrinKinderlieb"/>
        </subject>
        <encounter>
          <reference value="Encounter/UC1-EncounterMother20250205"/>
        </encounter>
        <effectiveDateTime value="2025-02-05"/>
        <performer>
          <reference value="PractitionerRole/UC1-PetraSectionataAtFrauenzimmer"/>
        </performer>
        <component>
          <code>
            <coding>
              <system value="http://loinc.org"/>
              <code value="25428-4"/>
              <display value="Glucose [Presence] in Urine by Test strip"/>
            </coding>
          </code>
          <valueString value="Zucker positiv"/>
        </component>
        <component>
          <code>
            <coding>
              <system value="http://loinc.org"/>
              <code value="5802-4"/>
              <display value="Nitrite [Presence] in Urine by Test strip"/>
            </coding>
          </code>
          <valueString value="Nitrit positiv"/>
        </component>
      </Observation>
    </resource>
  </entry>
  <entry>
    <fullUrl value="http://test.fhir.ch/r4/Observation/UC1-AbdominalCircumference-20250205"/>
    <resource>
      <Observation>
        <id value="UC1-AbdominalCircumference-20250205"/>
        <language value="de-CH"/>
        <text>
          <status value="generated"/><div xmlns="http://www.w3.org/1999/xhtml" xml:lang="de-CH" lang="de-CH"><a name="Observation_UC1-AbdominalCircumference-20250205"> </a><p class="res-header-id"><b>Generated Narrative: Observation UC1-AbdominalCircumference-20250205</b></p><a name="UC1-AbdominalCircumference-20250205"> </a><a name="hcUC1-AbdominalCircumference-20250205"> </a><a name="UC1-AbdominalCircumference-20250205-en-US"> </a><div style="display: inline-block; background-color: #d9e0e7; padding: 6px; margin: 4px; border: 1px solid #8da1b4; border-radius: 5px; line-height: 60%"><p style="margin-bottom: 0px">Language: de-CH</p></div><p><b>status</b>: Final</p><p><b>code</b>: <span title="Codes:{http://snomed.info/sct 3941000175104}">Birth abdominal circumference (observable entity)</span></p><p><b>subject</b>: <a href="Patient-UC1-KatrinKinderlieb.html">Frau Katrin Kinderlieb Female, DoB: 1986-01-18 ( urn:oid:2.16.756.5.30.1.123.100.1.1.1#80756015090002647590)</a></p><p><b>encounter</b>: <a href="Encounter-UC1-EncounterMother20250205.html">Encounter: status = finished; class = ambulatory (ActCode#AMB); period = 2025-02-05 --&gt; 2025-02-05</a></p><p><b>effective</b>: 2025-02-05</p><p><b>performer</b>: <a href="PractitionerRole-UC1-PetraSectionataAtFrauenzimmer.html">PractitionerRole Arzt / Ärztin</a></p><p><b>value</b>: 160 centimeter<span style="background: LightGoldenRodYellow"> (Details: UCUM  codecm = 'cm')</span></p></div>
        </text>
        <status value="final"/>
        <code>
          <coding>
            <system value="http://snomed.info/sct"/>
            <code value="3941000175104"/>
            <display value="Birth abdominal circumference (observable entity)"/>
          </coding>
        </code>
        <subject>
          <reference value="Patient/UC1-KatrinKinderlieb"/>
        </subject>
        <encounter>
          <reference value="Encounter/UC1-EncounterMother20250205"/>
        </encounter>
        <effectiveDateTime value="2025-02-05"/>
        <performer>
          <reference value="PractitionerRole/UC1-PetraSectionataAtFrauenzimmer"/>
        </performer>
        <valueQuantity>
          <value value="160"/>
          <unit value="centimeter"/>
          <system value="http://unitsofmeasure.org"/>
          <code value="cm"/>
        </valueQuantity>
      </Observation>
    </resource>
  </entry>
  <entry>
    <fullUrl value="http://test.fhir.ch/r4/Observation/UC1-FundusHeight-20250205"/>
    <resource>
      <Observation>
        <id value="UC1-FundusHeight-20250205"/>
        <language value="de-CH"/>
        <text>
          <status value="generated"/><div xmlns="http://www.w3.org/1999/xhtml" xml:lang="de-CH" lang="de-CH"><a name="Observation_UC1-FundusHeight-20250205"> </a><p class="res-header-id"><b>Generated Narrative: Observation UC1-FundusHeight-20250205</b></p><a name="UC1-FundusHeight-20250205"> </a><a name="hcUC1-FundusHeight-20250205"> </a><a name="UC1-FundusHeight-20250205-en-US"> </a><div style="display: inline-block; background-color: #d9e0e7; padding: 6px; margin: 4px; border: 1px solid #8da1b4; border-radius: 5px; line-height: 60%"><p style="margin-bottom: 0px">Language: de-CH</p></div><p><b>status</b>: Final</p><p><b>code</b>: <span title="Codes:{http://snomed.info/sct 364265003}">Height of gravid uterus (observable entity)</span></p><p><b>subject</b>: <a href="Patient-UC1-KatrinKinderlieb.html">Frau Katrin Kinderlieb Female, DoB: 1986-01-18 ( urn:oid:2.16.756.5.30.1.123.100.1.1.1#80756015090002647590)</a></p><p><b>encounter</b>: <a href="Encounter-UC1-EncounterMother20250205.html">Encounter: status = finished; class = ambulatory (ActCode#AMB); period = 2025-02-05 --&gt; 2025-02-05</a></p><p><b>effective</b>: 2025-02-05</p><p><b>performer</b>: <a href="PractitionerRole-UC1-PetraSectionataAtFrauenzimmer.html">PractitionerRole Arzt / Ärztin</a></p><p><b>value</b>: Rb/0</p></div>
        </text>
        <status value="final"/>
        <code>
          <coding>
            <system value="http://snomed.info/sct"/>
            <code value="364265003"/>
            <display value="Height of gravid uterus (observable entity)"/>
          </coding>
        </code>
        <subject>
          <reference value="Patient/UC1-KatrinKinderlieb"/>
        </subject>
        <encounter>
          <reference value="Encounter/UC1-EncounterMother20250205"/>
        </encounter>
        <effectiveDateTime value="2025-02-05"/>
        <performer>
          <reference value="PractitionerRole/UC1-PetraSectionataAtFrauenzimmer"/>
        </performer>
        <valueString value="Rb/0"/>
      </Observation>
    </resource>
  </entry>
  <entry>
    <fullUrl value="http://test.fhir.ch/r4/Observation/UC1-VaginaFeature-20250205"/>
    <resource>
      <Observation>
        <id value="UC1-VaginaFeature-20250205"/>
        <language value="de-CH"/>
        <text>
          <status value="generated"/><div xmlns="http://www.w3.org/1999/xhtml" xml:lang="de-CH" lang="de-CH"><a name="Observation_UC1-VaginaFeature-20250205"> </a><p class="res-header-id"><b>Generated Narrative: Observation UC1-VaginaFeature-20250205</b></p><a name="UC1-VaginaFeature-20250205"> </a><a name="hcUC1-VaginaFeature-20250205"> </a><a name="UC1-VaginaFeature-20250205-en-US"> </a><div style="display: inline-block; background-color: #d9e0e7; padding: 6px; margin: 4px; border: 1px solid #8da1b4; border-radius: 5px; line-height: 60%"><p style="margin-bottom: 0px">Language: de-CH</p></div><p><b>status</b>: Final</p><p><b>code</b>: <span title="Codes:{http://snomed.info/sct 364230003}">Vagina feature (observable entity)</span></p><p><b>subject</b>: <a href="Patient-UC1-KatrinKinderlieb.html">Frau Katrin Kinderlieb Female, DoB: 1986-01-18 ( urn:oid:2.16.756.5.30.1.123.100.1.1.1#80756015090002647590)</a></p><p><b>encounter</b>: <a href="Encounter-UC1-EncounterMother20250205.html">Encounter: status = finished; class = ambulatory (ActCode#AMB); period = 2025-02-05 --&gt; 2025-02-05</a></p><p><b>effective</b>: 2025-02-05</p><p><b>performer</b>: <a href="PractitionerRole-UC1-PetraSectionataAtFrauenzimmer.html">PractitionerRole Arzt / Ärztin</a></p><p><b>value</b>: bland</p></div>
        </text>
        <status value="final"/>
        <code>
          <coding>
            <system value="http://snomed.info/sct"/>
            <code value="364230003"/>
            <display value="Vagina feature (observable entity)"/>
          </coding>
        </code>
        <subject>
          <reference value="Patient/UC1-KatrinKinderlieb"/>
        </subject>
        <encounter>
          <reference value="Encounter/UC1-EncounterMother20250205"/>
        </encounter>
        <effectiveDateTime value="2025-02-05"/>
        <performer>
          <reference value="PractitionerRole/UC1-PetraSectionataAtFrauenzimmer"/>
        </performer>
        <valueString value="bland"/>
      </Observation>
    </resource>
  </entry>
  <entry>
    <fullUrl value="http://test.fhir.ch/r4/Observation/UC1-FetalMovement-20250205"/>
    <resource>
      <Observation>
        <id value="UC1-FetalMovement-20250205"/>
        <language value="de-CH"/>
        <text>
          <status value="generated"/><div xmlns="http://www.w3.org/1999/xhtml" xml:lang="de-CH" lang="de-CH"><a name="Observation_UC1-FetalMovement-20250205"> </a><p class="res-header-id"><b>Generated Narrative: Observation UC1-FetalMovement-20250205</b></p><a name="UC1-FetalMovement-20250205"> </a><a name="hcUC1-FetalMovement-20250205"> </a><a name="UC1-FetalMovement-20250205-en-US"> </a><div style="display: inline-block; background-color: #d9e0e7; padding: 6px; margin: 4px; border: 1px solid #8da1b4; border-radius: 5px; line-height: 60%"><p style="margin-bottom: 0px">Language: de-CH</p></div><p><b>status</b>: Final</p><p><b>code</b>: <span title="Codes:{http://snomed.info/sct 249040004}">Fetal movement activity (observable entity)</span></p><p><b>subject</b>: <a href="Patient-UC1-Child.html">Anonymous Patient Female, DoB Unknown ( Patient internal identifier: A)</a></p><p><b>encounter</b>: <a href="Encounter-UC1-EncounterChild20250205.html">Encounter: status = finished; class = ambulatory (ActCode#AMB); period = 2025-02-05 --&gt; 2025-02-05</a></p><p><b>effective</b>: 2025-02-05</p><p><b>performer</b>: <a href="PractitionerRole-UC1-PetraSectionataAtFrauenzimmer.html">PractitionerRole Arzt / Ärztin</a></p><p><b>value</b>: normal</p></div>
        </text>
        <status value="final"/>
        <code>
          <coding>
            <system value="http://snomed.info/sct"/>
            <code value="249040004"/>
            <display value="Fetal movement activity (observable entity)"/>
          </coding>
        </code>
        <subject>
          <reference value="Patient/UC1-Child"/>
        </subject>
        <encounter>
          <reference value="Encounter/UC1-EncounterChild20250205"/>
        </encounter>
        <effectiveDateTime value="2025-02-05"/>
        <performer>
          <reference value="PractitionerRole/UC1-PetraSectionataAtFrauenzimmer"/>
        </performer>
        <valueString value="normal"/>
      </Observation>
    </resource>
  </entry>
  <entry>
    <fullUrl value="http://test.fhir.ch/r4/Observation/UC1-FetalHeartFeature-20250205"/>
    <resource>
      <Observation>
        <id value="UC1-FetalHeartFeature-20250205"/>
        <language value="de-CH"/>
        <text>
          <status value="generated"/><div xmlns="http://www.w3.org/1999/xhtml" xml:lang="de-CH" lang="de-CH"><a name="Observation_UC1-FetalHeartFeature-20250205"> </a><p class="res-header-id"><b>Generated Narrative: Observation UC1-FetalHeartFeature-20250205</b></p><a name="UC1-FetalHeartFeature-20250205"> </a><a name="hcUC1-FetalHeartFeature-20250205"> </a><a name="UC1-FetalHeartFeature-20250205-en-US"> </a><div style="display: inline-block; background-color: #d9e0e7; padding: 6px; margin: 4px; border: 1px solid #8da1b4; border-radius: 5px; line-height: 60%"><p style="margin-bottom: 0px">Language: de-CH</p></div><p><b>status</b>: Final</p><p><b>code</b>: <span title="Codes:{http://snomed.info/sct 364620002}">Fetal heart feature (observable entity)</span></p><p><b>subject</b>: <a href="Patient-UC1-Child.html">Anonymous Patient Female, DoB Unknown ( Patient internal identifier: A)</a></p><p><b>encounter</b>: <a href="Encounter-UC1-EncounterChild20250205.html">Encounter: status = finished; class = ambulatory (ActCode#AMB); period = 2025-02-05 --&gt; 2025-02-05</a></p><p><b>effective</b>: 2025-02-05</p><p><b>performer</b>: <a href="PractitionerRole-UC1-PetraSectionataAtFrauenzimmer.html">PractitionerRole Arzt / Ärztin</a></p><p><b>value</b>: 162 /min</p></div>
        </text>
        <status value="final"/>
        <code>
          <coding>
            <system value="http://snomed.info/sct"/>
            <code value="364620002"/>
            <display value="Fetal heart feature (observable entity)"/>
          </coding>
        </code>
        <subject>
          <reference value="Patient/UC1-Child"/>
        </subject>
        <encounter>
          <reference value="Encounter/UC1-EncounterChild20250205"/>
        </encounter>
        <effectiveDateTime value="2025-02-05"/>
        <performer>
          <reference value="PractitionerRole/UC1-PetraSectionataAtFrauenzimmer"/>
        </performer>
        <valueString value="162 /min"/>
      </Observation>
    </resource>
  </entry>
  <entry>
    <fullUrl value="http://test.fhir.ch/r4/Observation/UC1-FetalPosition-20250205"/>
    <resource>
      <Observation>
        <id value="UC1-FetalPosition-20250205"/>
        <language value="de-CH"/>
        <text>
          <status value="generated"/><div xmlns="http://www.w3.org/1999/xhtml" xml:lang="de-CH" lang="de-CH"><a name="Observation_UC1-FetalPosition-20250205"> </a><p class="res-header-id"><b>Generated Narrative: Observation UC1-FetalPosition-20250205</b></p><a name="UC1-FetalPosition-20250205"> </a><a name="hcUC1-FetalPosition-20250205"> </a><a name="UC1-FetalPosition-20250205-en-US"> </a><div style="display: inline-block; background-color: #d9e0e7; padding: 6px; margin: 4px; border: 1px solid #8da1b4; border-radius: 5px; line-height: 60%"><p style="margin-bottom: 0px">Language: de-CH</p></div><p><b>status</b>: Final</p><p><b>code</b>: <span title="Codes:{http://snomed.info/sct 364607000}">Position of fetus (observable entity)</span></p><p><b>subject</b>: <a href="Patient-UC1-Child.html">Anonymous Patient Female, DoB Unknown ( Patient internal identifier: A)</a></p><p><b>encounter</b>: <a href="Encounter-UC1-EncounterChild20250205.html">Encounter: status = finished; class = ambulatory (ActCode#AMB); period = 2025-02-05 --&gt; 2025-02-05</a></p><p><b>effective</b>: 2025-02-05</p><p><b>performer</b>: <a href="PractitionerRole-UC1-PetraSectionataAtFrauenzimmer.html">PractitionerRole Arzt / Ärztin</a></p><p><b>value</b>: <span title="Codes:{http://snomed.info/sct 70028003}">Schädellage</span></p></div>
        </text>
        <status value="final"/>
        <code>
          <coding>
            <system value="http://snomed.info/sct"/>
            <code value="364607000"/>
            <display value="Position of fetus (observable entity)"/>
          </coding>
        </code>
        <subject>
          <reference value="Patient/UC1-Child"/>
        </subject>
        <encounter>
          <reference value="Encounter/UC1-EncounterChild20250205"/>
        </encounter>
        <effectiveDateTime value="2025-02-05"/>
        <performer>
          <reference value="PractitionerRole/UC1-PetraSectionataAtFrauenzimmer"/>
        </performer>
        <valueCodeableConcept>
          <coding>
            <system value="http://snomed.info/sct"/>
            <code value="70028003"/>
            <display value="Vertex presentation (finding)"/>
          </coding>
          <text value="Schädellage"/>
        </valueCodeableConcept>
      </Observation>
    </resource>
  </entry>
</Bundle>