<?xml version="1.0" encoding="UTF-8"?>

<Bundle xmlns="http://hl7.org/fhir">
  <id value="UC3-Document"/>
  <language value="de-CH"/>
  <identifier>
    <system value="urn:ietf:rfc:3986"/>
    <value value="urn:uuid:7afc1e97-67f8-49a8-91f5-46af596d0609"/>
  </identifier>
  <type value="document"/>
  <timestamp value="2025-02-10T15:45:00+01:00"/>
  <entry>
    <fullUrl value="http://test.fhir.ch/r4/Composition/UC3-Composition"/>
    <resource>
      <Composition>
        <id value="UC3-Composition"/>
        <language value="de-CH"/>
        <text>
          <status value="generated"/><div xmlns="http://www.w3.org/1999/xhtml" xml:lang="de-CH" lang="de-CH"><a name="Composition_UC3-Composition"> </a><p class="res-header-id"><b>Generated Narrative: Composition UC3-Composition</b></p><a name="UC3-Composition"> </a><a name="hcUC3-Composition"> </a><div style="display: inline-block; background-color: #d9e0e7; padding: 6px; margin: 4px; border: 1px solid #8da1b4; border-radius: 5px; line-height: 60%"><p style="margin-bottom: 0px">Language: de-CH</p></div><p><b>identifier</b>: <a href="http://terminology.hl7.org/5.3.0/NamingSystem-uri.html" title="As defined by RFC 3986 (http://www.ietf.org/rfc/rfc3986.txt)(with many schemes defined in many RFCs). For OIDs and UUIDs, use the URN form (urn:oid:(note: lowercase) and urn:uuid:). See http://www.ietf.org/rfc/rfc3001.txt and http://www.ietf.org/rfc/rfc4122.txt 

This oid is used as an identifier II.root to indicate the the extension is an absolute URI (technically, an IRI). Typically, this is used for OIDs and GUIDs. Note that when this OID is used with OIDs and GUIDs, the II.extension should start with urn:oid or urn:uuid: 

Note that this OID is created to aid with interconversion between CDA and FHIR - FHIR uses urn:ietf:rfc:3986 as equivalent to this OID. URIs as identifiers appear more commonly in FHIR.

This OID may also be used in CD.codeSystem.">Uniform Resource Identifier (URI)</a>/urn:uuid:064d9096-5f85-4aa1-8bd9-d3b6397eff29</p><p><b>status</b>: Final</p><p><b>type</b>: <span title="Codes:{http://snomed.info/sct 736377005}">Maternity care plan (record artifact)</span></p><p><b>date</b>: 2025-02-10 15:45:00+0100</p><p><b>author</b>: <a href="PractitionerRole-UC3-ClaudiaFruehblickAtFrauenzimmer.html">PractitionerRole Arzt/Ärztin</a></p><p><b>title</b>: Schwangerschaftspass</p><p><b>confidentiality</b>: normal</p></div>
        </text>
        <identifier>
          <system value="urn:ietf:rfc:3986"/>
          <value value="urn:uuid:064d9096-5f85-4aa1-8bd9-d3b6397eff29"/>
        </identifier>
        <status value="final"/>
        <type>
          <coding>
            <system value="http://snomed.info/sct"/>
            <code value="736377005"/>
            <display value="Maternity care plan (record artifact)"/>
          </coding>
        </type>
        <subject>
          <reference value="Patient/UC3-SophieDoppelherz"/>
        </subject>
        <date value="2025-02-10T15:45:00+01:00"/>
        <author>
          <reference value="PractitionerRole/UC3-ClaudiaFruehblickAtFrauenzimmer"/>
        </author>
        <title value="Schwangerschaftspass"/>
        <confidentiality value="N">
          <extension url="http://fhir.ch/ig/ch-core/StructureDefinition/ch-ext-epr-confidentialitycode">
            <valueCodeableConcept>
              <coding>
                <system value="http://snomed.info/sct"/>
                <code value="17621005"/>
                <display value="Normal (qualifier value)"/>
              </coding>
            </valueCodeableConcept>
          </extension>
        </confidentiality>
        <section>
          <title value="Stammdaten"/>
          <code>
            <coding>
              <system value="http://loinc.org"/>
              <code value="86638-4"/>
              <display value="Patient demographic and administrative information panel [FPAR]"/>
            </coding>
          </code>
          <section>
            <title value="Behandelnde Leistungserbringende"/>
            <code>
              <coding>
                <system value="http://loinc.org"/>
                <code value="85847-2"/>
                <display value="Patient Care team information"/>
              </coding>
            </code>
            <text>
              <status value="additional"/><div xmlns="http://www.w3.org/1999/xhtml"><p><b>Gynäkologin:</b> Claudia Frühblick, Frauenzimmer</p></div>
            </text>
            <entry>
              <reference value="PractitionerRole/UC3-ClaudiaFruehblickAtFrauenzimmer"/>
            </entry>
          </section>
        </section>
        <section>
          <title value="Schwangerschaftsverlauf"/>
          <code>
            <coding>
              <system value="http://loinc.org"/>
              <code value="57059-8"/>
              <display value="Pregnancy visit summary note Narrative"/>
            </coding>
          </code>
          <text>
            <status value="generated"/><div xmlns="http://www.w3.org/1999/xhtml"><b>Untersuchung vom 10.02.2025</b><ul><li>SSW: 7</li><li>Gewicht: 64 kg</li><li>Blutdruck: 120/75 mmHg</li><li>Urin: bland</li><li>Herztöne Kind A: 155 /min</li><li>Herztöne Kind B: 155 /min</li><li>Nächste Kontrolle: 10.03.2025</li></ul></div>
          </text>
          <entry>
            <reference value="Encounter/UC3-EncounterMother20250210"/>
          </entry>
          <entry>
            <reference value="Encounter/UC3-EncounterChildA20250210"/>
          </entry>
          <entry>
            <reference value="Encounter/UC3-EncounterChildB20250210"/>
          </entry>
          <entry>
            <reference value="Observation/UC3-GestationalAgeInDays-20250210"/>
          </entry>
          <entry>
            <reference value="Observation/UC3-BodyWeight-20250210"/>
          </entry>
          <entry>
            <reference value="Observation/UC3-BloodPressure-20250210"/>
          </entry>
          <entry>
            <reference value="Observation/UC3-UrineFinding-20250210"/>
          </entry>
          <entry>
            <reference value="Observation/UC3-FetalHeartFeatureChildA-20250210"/>
          </entry>
          <entry>
            <reference value="Observation/UC3-FetalHeartFeatureChildB-20250210"/>
          </entry>
          <entry>
            <reference value="Appointment/UC3-Appointment20250310"/>
          </entry>
        </section>
      </Composition>
    </resource>
  </entry>
  <entry>
    <fullUrl value="http://test.fhir.ch/r4/Patient/UC3-SophieDoppelherz"/>
    <resource>
      <Patient>
        <id value="UC3-SophieDoppelherz"/>
        <language value="de-CH"/>
        <text>
          <status value="generated"/><div xmlns="http://www.w3.org/1999/xhtml" xml:lang="de-CH" lang="de-CH"><a name="Patient_UC3-SophieDoppelherz"> </a><p class="res-header-id"><b>Generated Narrative: Patient UC3-SophieDoppelherz</b></p><a name="UC3-SophieDoppelherz"> </a><a name="hcUC3-SophieDoppelherz"> </a><div style="display: inline-block; background-color: #d9e0e7; padding: 6px; margin: 4px; border: 1px solid #8da1b4; border-radius: 5px; line-height: 60%"><p style="margin-bottom: 0px">Language: de-CH</p></div><p style="border: 1px #661aff solid; background-color: #e6e6ff; padding: 10px;">Sophie Doppelherz  Female, DoB: 1992-07-22 ( Medical record number)</p><hr/><table class="grid"><tr><td style="background-color: #f3f5da" title="Patient Links">Links:</td><td colspan="3"><ul><li>Also see: <a href="RelatedPerson-UC3-RelatedPerson-ChildA-Mother.html">RelatedPerson: relationship = Natural mother (person)</a></li><li>Also see: <a href="RelatedPerson-UC3-RelatedPerson-ChildB-Mother.html">RelatedPerson: relationship = Natural mother (person)</a></li></ul></td></tr></table></div>
        </text>
        <identifier>
          <type>
            <coding>
              <system value="http://terminology.hl7.org/CodeSystem/v2-0203"/>
              <code value="MR"/>
            </coding>
          </type>
          <system value="http://example.com/identifiers/patient"/>
          <value value="123456"/>
        </identifier>
        <name>
          <family value="Doppelherz"/>
          <given value="Sophie"/>
        </name>
        <gender value="female"/>
        <birthDate value="1992-07-22"/>
        <link>
          <other>
            <reference value="RelatedPerson/UC3-RelatedPerson-ChildA-Mother"/>
          </other>
          <type value="seealso"/>
        </link>
        <link>
          <other>
            <reference value="RelatedPerson/UC3-RelatedPerson-ChildB-Mother"/>
          </other>
          <type value="seealso"/>
        </link>
      </Patient>
    </resource>
  </entry>
  <entry>
    <fullUrl value="http://test.fhir.ch/r4/RelatedPerson/UC3-RelatedPerson-ChildA-Mother"/>
    <resource>
      <RelatedPerson>
        <id value="UC3-RelatedPerson-ChildA-Mother"/>
        <language value="de-CH"/>
        <text>
          <status value="generated"/><div xmlns="http://www.w3.org/1999/xhtml" xml:lang="de-CH" lang="de-CH"><a name="RelatedPerson_UC3-RelatedPerson-ChildA-Mother"> </a><p class="res-header-id"><b>Generated Narrative: RelatedPerson UC3-RelatedPerson-ChildA-Mother</b></p><a name="UC3-RelatedPerson-ChildA-Mother"> </a><a name="hcUC3-RelatedPerson-ChildA-Mother"> </a><div style="display: inline-block; background-color: #d9e0e7; padding: 6px; margin: 4px; border: 1px solid #8da1b4; border-radius: 5px; line-height: 60%"><p style="margin-bottom: 0px">Language: de-CH</p></div><p><b>patient</b>: <a href="Patient-UC3-ChildA.html">Anonymous Patient (no stated gender), DoB Unknown ( Patient internal identifier: A)</a></p><p><b>relationship</b>: <span title="Codes:{http://snomed.info/sct 65656005}">Natural mother (person)</span></p></div>
        </text>
        <patient>
          <reference value="Patient/UC3-ChildA"/>
        </patient>
        <relationship>
          <coding>
            <system value="http://snomed.info/sct"/>
            <code value="65656005"/>
            <display value="Natural mother (person)"/>
          </coding>
        </relationship>
      </RelatedPerson>
    </resource>
  </entry>
  <entry>
    <fullUrl value="http://test.fhir.ch/r4/Patient/UC3-ChildA"/>
    <resource>
      <Patient>
        <id value="UC3-ChildA"/>
        <language value="de-CH"/>
        <text>
          <status value="generated"/><div xmlns="http://www.w3.org/1999/xhtml" xml:lang="de-CH" lang="de-CH"><a name="Patient_UC3-ChildA"> </a><p class="res-header-id"><b>Generated Narrative: Patient UC3-ChildA</b></p><a name="UC3-ChildA"> </a><a name="hcUC3-ChildA"> </a><div style="display: inline-block; background-color: #d9e0e7; padding: 6px; margin: 4px; border: 1px solid #8da1b4; border-radius: 5px; line-height: 60%"><p style="margin-bottom: 0px">Language: de-CH</p></div><p style="border: 1px #661aff solid; background-color: #e6e6ff; padding: 10px;">Anonymous Patient (no stated gender), DoB Unknown ( Patient internal identifier: A)</p><hr/></div>
        </text>
        <identifier>
          <type>
            <coding>
              <system value="http://terminology.hl7.org/CodeSystem/v2-0203"/>
              <code value="PI"/>
              <display value="Patient internal identifier"/>
            </coding>
          </type>
          <system value="http://example.com/identifiers/child"/>
          <value value="A"/>
        </identifier>
      </Patient>
    </resource>
  </entry>
  <entry>
    <fullUrl value="http://test.fhir.ch/r4/RelatedPerson/UC3-RelatedPerson-ChildB-Mother"/>
    <resource>
      <RelatedPerson>
        <id value="UC3-RelatedPerson-ChildB-Mother"/>
        <language value="de-CH"/>
        <text>
          <status value="generated"/><div xmlns="http://www.w3.org/1999/xhtml" xml:lang="de-CH" lang="de-CH"><a name="RelatedPerson_UC3-RelatedPerson-ChildB-Mother"> </a><p class="res-header-id"><b>Generated Narrative: RelatedPerson UC3-RelatedPerson-ChildB-Mother</b></p><a name="UC3-RelatedPerson-ChildB-Mother"> </a><a name="hcUC3-RelatedPerson-ChildB-Mother"> </a><div style="display: inline-block; background-color: #d9e0e7; padding: 6px; margin: 4px; border: 1px solid #8da1b4; border-radius: 5px; line-height: 60%"><p style="margin-bottom: 0px">Language: de-CH</p></div><p><b>patient</b>: <a href="Patient-UC3-ChildB.html">Anonymous Patient (no stated gender), DoB Unknown ( Patient internal identifier: B)</a></p><p><b>relationship</b>: <span title="Codes:{http://snomed.info/sct 65656005}">Natural mother (person)</span></p></div>
        </text>
        <patient>
          <reference value="Patient/UC3-ChildB"/>
        </patient>
        <relationship>
          <coding>
            <system value="http://snomed.info/sct"/>
            <code value="65656005"/>
            <display value="Natural mother (person)"/>
          </coding>
        </relationship>
      </RelatedPerson>
    </resource>
  </entry>
  <entry>
    <fullUrl value="http://test.fhir.ch/r4/Patient/UC3-ChildB"/>
    <resource>
      <Patient>
        <id value="UC3-ChildB"/>
        <language value="de-CH"/>
        <text>
          <status value="generated"/><div xmlns="http://www.w3.org/1999/xhtml" xml:lang="de-CH" lang="de-CH"><a name="Patient_UC3-ChildB"> </a><p class="res-header-id"><b>Generated Narrative: Patient UC3-ChildB</b></p><a name="UC3-ChildB"> </a><a name="hcUC3-ChildB"> </a><div style="display: inline-block; background-color: #d9e0e7; padding: 6px; margin: 4px; border: 1px solid #8da1b4; border-radius: 5px; line-height: 60%"><p style="margin-bottom: 0px">Language: de-CH</p></div><p style="border: 1px #661aff solid; background-color: #e6e6ff; padding: 10px;">Anonymous Patient (no stated gender), DoB Unknown ( Patient internal identifier: B)</p><hr/></div>
        </text>
        <identifier>
          <type>
            <coding>
              <system value="http://terminology.hl7.org/CodeSystem/v2-0203"/>
              <code value="PI"/>
              <display value="Patient internal identifier"/>
            </coding>
          </type>
          <system value="http://example.com/identifiers/child"/>
          <value value="B"/>
        </identifier>
      </Patient>
    </resource>
  </entry>
  <entry>
    <fullUrl value="http://test.fhir.ch/r4/PractitionerRole/UC3-ClaudiaFruehblickAtFrauenzimmer"/>
    <resource>
      <PractitionerRole>
        <id value="UC3-ClaudiaFruehblickAtFrauenzimmer"/>
        <language value="de-CH"/>
        <text>
          <status value="generated"/><div xmlns="http://www.w3.org/1999/xhtml" xml:lang="de-CH" lang="de-CH"><a name="PractitionerRole_UC3-ClaudiaFruehblickAtFrauenzimmer"> </a><p class="res-header-id"><b>Generated Narrative: PractitionerRole UC3-ClaudiaFruehblickAtFrauenzimmer</b></p><a name="UC3-ClaudiaFruehblickAtFrauenzimmer"> </a><a name="hcUC3-ClaudiaFruehblickAtFrauenzimmer"> </a><div style="display: inline-block; background-color: #d9e0e7; padding: 6px; margin: 4px; border: 1px solid #8da1b4; border-radius: 5px; line-height: 60%"><p style="margin-bottom: 0px">Language: de-CH</p></div><p><b>practitioner</b>: <a href="Practitioner-UC3-ClaudiaFruehblick.html">Practitioner Claudia Frühblick </a></p><p><b>organization</b>: <a href="Organization-UC3-Frauenzimmer.html">Organization Frauenzimmer</a></p><p><b>code</b>: <span title="Codes:{http://snomed.info/sct 309343006}">Arzt/Ärztin</span></p><p><b>specialty</b>: <span title="Codes:{urn:oid:2.16.756.5.30.1.127.3.5 1003}">Gynäkologie und Geburtshilfe</span></p></div>
        </text>
        <practitioner>
          <reference value="Practitioner/UC3-ClaudiaFruehblick"/>
        </practitioner>
        <organization>
          <reference value="Organization/UC3-Frauenzimmer"/>
        </organization>
        <code>
          <coding>
            <system value="http://snomed.info/sct"/>
            <code value="309343006"/>
            <display value="Arzt/Ärztin"/>
          </coding>
        </code>
        <specialty>
          <coding>
            <system value="urn:oid:2.16.756.5.30.1.127.3.5"/>
            <code value="1003"/>
            <display value="Gynäkologie und Geburtshilfe"/>
          </coding>
        </specialty>
      </PractitionerRole>
    </resource>
  </entry>
  <entry>
    <fullUrl value="http://test.fhir.ch/r4/Practitioner/UC3-ClaudiaFruehblick"/>
    <resource>
      <Practitioner>
        <id value="UC3-ClaudiaFruehblick"/>
        <language value="de-CH"/>
        <text>
          <status value="generated"/><div xmlns="http://www.w3.org/1999/xhtml" xml:lang="de-CH" lang="de-CH"><a name="Practitioner_UC3-ClaudiaFruehblick"> </a><p class="res-header-id"><b>Generated Narrative: Practitioner UC3-ClaudiaFruehblick</b></p><a name="UC3-ClaudiaFruehblick"> </a><a name="hcUC3-ClaudiaFruehblick"> </a><div style="display: inline-block; background-color: #d9e0e7; padding: 6px; margin: 4px; border: 1px solid #8da1b4; border-radius: 5px; line-height: 60%"><p style="margin-bottom: 0px">Language: de-CH</p></div><p><b>identifier</b>: <a href="https://www.gs1.org/standards/id-keys/gln" title="Global Location Number">GLN</a>/7601000239891</p><p><b>name</b>: Claudia Frühblick </p></div>
        </text>
        <identifier>
          <system value="urn:oid:2.51.1.3"/>
          <value value="7601000239891"/>
        </identifier>
        <name>
          <family value="Frühblick"/>
          <given value="Claudia"/>
          <prefix value="Dr. med."/>
        </name>
      </Practitioner>
    </resource>
  </entry>
  <entry>
    <fullUrl value="http://test.fhir.ch/r4/Organization/UC3-Frauenzimmer"/>
    <resource>
      <Organization>
        <id value="UC3-Frauenzimmer"/>
        <language value="de-CH"/>
        <text>
          <status value="generated"/><div xmlns="http://www.w3.org/1999/xhtml" xml:lang="de-CH" lang="de-CH"><a name="Organization_UC3-Frauenzimmer"> </a><p class="res-header-id"><b>Generated Narrative: Organization UC3-Frauenzimmer</b></p><a name="UC3-Frauenzimmer"> </a><a name="hcUC3-Frauenzimmer"> </a><div style="display: inline-block; background-color: #d9e0e7; padding: 6px; margin: 4px; border: 1px solid #8da1b4; border-radius: 5px; line-height: 60%"><p style="margin-bottom: 0px">Language: de-CH</p></div><p><b>name</b>: Frauenzimmer</p><p><b>telecom</b>: <a href="mailto:frauenzimmer@example.com">frauenzimmer@example.com</a>, <a href="tel:+41444444444">+41 44 444 44 44</a></p><p><b>address</b>: Zimmergasse 1 Musterhausen 8888 Schweiz </p></div>
        </text>
        <name value="Frauenzimmer"/>
        <telecom>
          <system value="email"/>
          <value value="frauenzimmer@example.com"/>
        </telecom>
        <telecom>
          <system value="phone"/>
          <value value="+41 44 444 44 44"/>
          <use value="work"/>
        </telecom>
        <address>
          <line value="Zimmergasse 1"/>
          <city value="Musterhausen"/>
          <postalCode value="8888"/>
          <country value="Schweiz"/>
        </address>
      </Organization>
    </resource>
  </entry>
  <entry>
    <fullUrl value="http://test.fhir.ch/r4/Encounter/UC3-EncounterMother20250210"/>
    <resource>
      <Encounter>
        <id value="UC3-EncounterMother20250210"/>
        <language value="de-CH"/>
        <text>
          <status value="extensions"/><div xmlns="http://www.w3.org/1999/xhtml" xml:lang="de-CH" lang="de-CH"><a name="Encounter_UC3-EncounterMother20250210"> </a><p class="res-header-id"><b>Generated Narrative: Encounter UC3-EncounterMother20250210</b></p><a name="UC3-EncounterMother20250210"> </a><a name="hcUC3-EncounterMother20250210"> </a><div style="display: inline-block; background-color: #d9e0e7; padding: 6px; margin: 4px; border: 1px solid #8da1b4; border-radius: 5px; line-height: 60%"><p style="margin-bottom: 0px">Language: de-CH</p></div><p><b>CH EPREG Extension: Examination Sequence</b>: 1</p><p><b>status</b>: Finished</p><p><b>class</b>: <a href="http://terminology.hl7.org/7.0.1/CodeSystem-v3-ActCode.html#v3-ActCode-AMB">ActCode: AMB</a> (ambulatory)</p><p><b>subject</b>: <a href="Patient-UC3-SophieDoppelherz.html">Sophie Doppelherz  Female, DoB: 1992-07-22 ( Medical record number)</a></p><h3>Participants</h3><table class="grid"><tr><td style="display: none">-</td><td><b>Individual</b></td></tr><tr><td style="display: none">*</td><td><a href="PractitionerRole-UC3-ClaudiaFruehblickAtFrauenzimmer.html">PractitionerRole Arzt/Ärztin</a></td></tr></table><p><b>period</b>: 2025-02-10 --&gt; 2025-02-10</p></div>
        </text>
        <extension url="http://fhir.ch/ig/ch-epreg/StructureDefinition/ch-epreg-ext-examination-sequence">
          <valuePositiveInt value="1"/>
        </extension>
        <status value="finished"/>
        <class>
          <system value="http://terminology.hl7.org/CodeSystem/v3-ActCode"/>
          <code value="AMB"/>
          <display value="ambulatory"/>
        </class>
        <subject>
          <reference value="Patient/UC3-SophieDoppelherz"/>
        </subject>
        <participant>
          <individual>
            <reference value="PractitionerRole/UC3-ClaudiaFruehblickAtFrauenzimmer"/>
          </individual>
        </participant>
        <period>
          <start value="2025-02-10"/>
          <end value="2025-02-10"/>
        </period>
      </Encounter>
    </resource>
  </entry>
  <entry>
    <fullUrl value="http://test.fhir.ch/r4/Observation/UC3-GestationalAgeInDays-20250210"/>
    <resource>
      <Observation>
        <id value="UC3-GestationalAgeInDays-20250210"/>
        <language value="de-CH"/>
        <text>
          <status value="generated"/><div xmlns="http://www.w3.org/1999/xhtml" xml:lang="de-CH" lang="de-CH"><a name="Observation_UC3-GestationalAgeInDays-20250210"> </a><p class="res-header-id"><b>Generated Narrative: Observation UC3-GestationalAgeInDays-20250210</b></p><a name="UC3-GestationalAgeInDays-20250210"> </a><a name="hcUC3-GestationalAgeInDays-20250210"> </a><div style="display: inline-block; background-color: #d9e0e7; padding: 6px; margin: 4px; border: 1px solid #8da1b4; border-radius: 5px; line-height: 60%"><p style="margin-bottom: 0px">Language: de-CH</p></div><p><b>status</b>: Final</p><p><b>code</b>: <span title="Codes:{http://loinc.org 49052-4}">Gestational age in days</span></p><p><b>subject</b>: <a href="Patient-UC3-SophieDoppelherz.html">Sophie Doppelherz  Female, DoB: 1992-07-22 ( Medical record number)</a></p><p><b>encounter</b>: <a href="Encounter-UC3-EncounterMother20250210.html">Encounter: extension = 1; status = finished; class = ambulatory (ActCode#AMB); period = 2025-02-10 --&gt; 2025-02-10</a></p><p><b>effective</b>: 2025-02-10</p><p><b>performer</b>: <a href="PractitionerRole-UC3-ClaudiaFruehblickAtFrauenzimmer.html">PractitionerRole Arzt/Ärztin</a></p><p><b>value</b>: 49 day<span style="background: LightGoldenRodYellow"> (Details: UCUM  coded = 'd')</span></p></div>
        </text>
        <status value="final"/>
        <code>
          <coding>
            <system value="http://loinc.org"/>
            <code value="49052-4"/>
            <display value="Gestational age in days"/>
          </coding>
        </code>
        <subject>
          <reference value="Patient/UC3-SophieDoppelherz"/>
        </subject>
        <encounter>
          <reference value="Encounter/UC3-EncounterMother20250210"/>
        </encounter>
        <effectiveDateTime value="2025-02-10"/>
        <performer>
          <reference value="PractitionerRole/UC3-ClaudiaFruehblickAtFrauenzimmer"/>
        </performer>
        <valueQuantity>
          <value value="49"/>
          <unit value="day"/>
          <system value="http://unitsofmeasure.org"/>
          <code value="d"/>
        </valueQuantity>
      </Observation>
    </resource>
  </entry>
  <entry>
    <fullUrl value="http://test.fhir.ch/r4/Observation/UC3-BodyWeight-20250210"/>
    <resource>
      <Observation>
        <id value="UC3-BodyWeight-20250210"/>
        <language value="de-CH"/>
        <text>
          <status value="generated"/><div xmlns="http://www.w3.org/1999/xhtml" xml:lang="de-CH" lang="de-CH"><a name="Observation_UC3-BodyWeight-20250210"> </a><p class="res-header-id"><b>Generated Narrative: Observation UC3-BodyWeight-20250210</b></p><a name="UC3-BodyWeight-20250210"> </a><a name="hcUC3-BodyWeight-20250210"> </a><div style="display: inline-block; background-color: #d9e0e7; padding: 6px; margin: 4px; border: 1px solid #8da1b4; border-radius: 5px; line-height: 60%"><p style="margin-bottom: 0px">Language: de-CH</p></div><p><b>status</b>: Final</p><p><b>category</b>: <span title="Codes:{http://terminology.hl7.org/CodeSystem/observation-category vital-signs}">Vital Signs</span></p><p><b>code</b>: <span title="Codes:{http://loinc.org 29463-7}">Body weight</span></p><p><b>subject</b>: <a href="Patient-UC3-SophieDoppelherz.html">Sophie Doppelherz  Female, DoB: 1992-07-22 ( Medical record number)</a></p><p><b>encounter</b>: <a href="Encounter-UC3-EncounterMother20250210.html">Encounter: extension = 1; status = finished; class = ambulatory (ActCode#AMB); period = 2025-02-10 --&gt; 2025-02-10</a></p><p><b>effective</b>: 2025-02-10</p><p><b>performer</b>: <a href="PractitionerRole-UC3-ClaudiaFruehblickAtFrauenzimmer.html">PractitionerRole Arzt/Ärztin</a></p><p><b>value</b>: 64 kilogram<span style="background: LightGoldenRodYellow"> (Details: UCUM  codekg = 'kg')</span></p></div>
        </text>
        <status value="final"/>
        <category>
          <coding>
            <system value="http://terminology.hl7.org/CodeSystem/observation-category"/>
            <code value="vital-signs"/>
            <display value="Vital Signs"/>
          </coding>
        </category>
        <code>
          <coding>
            <system value="http://loinc.org"/>
            <code value="29463-7"/>
            <display value="Body weight"/>
          </coding>
        </code>
        <subject>
          <reference value="Patient/UC3-SophieDoppelherz"/>
        </subject>
        <encounter>
          <reference value="Encounter/UC3-EncounterMother20250210"/>
        </encounter>
        <effectiveDateTime value="2025-02-10"/>
        <performer>
          <reference value="PractitionerRole/UC3-ClaudiaFruehblickAtFrauenzimmer"/>
        </performer>
        <valueQuantity>
          <value value="64"/>
          <unit value="kilogram"/>
          <system value="http://unitsofmeasure.org"/>
          <code value="kg"/>
        </valueQuantity>
      </Observation>
    </resource>
  </entry>
  <entry>
    <fullUrl value="http://test.fhir.ch/r4/Observation/UC3-BloodPressure-20250210"/>
    <resource>
      <Observation>
        <id value="UC3-BloodPressure-20250210"/>
        <language value="de-CH"/>
        <text>
          <status value="generated"/><div xmlns="http://www.w3.org/1999/xhtml" xml:lang="de-CH" lang="de-CH"><a name="Observation_UC3-BloodPressure-20250210"> </a><p class="res-header-id"><b>Generated Narrative: Observation UC3-BloodPressure-20250210</b></p><a name="UC3-BloodPressure-20250210"> </a><a name="hcUC3-BloodPressure-20250210"> </a><div style="display: inline-block; background-color: #d9e0e7; padding: 6px; margin: 4px; border: 1px solid #8da1b4; border-radius: 5px; line-height: 60%"><p style="margin-bottom: 0px">Language: de-CH</p></div><p><b>status</b>: Final</p><p><b>category</b>: <span title="Codes:{http://terminology.hl7.org/CodeSystem/observation-category vital-signs}">Vital Signs</span></p><p><b>code</b>: <span title="Codes:{http://loinc.org 85354-9}">Blood pressure panel with all children optional</span></p><p><b>subject</b>: <a href="Patient-UC3-SophieDoppelherz.html">Sophie Doppelherz  Female, DoB: 1992-07-22 ( Medical record number)</a></p><p><b>encounter</b>: <a href="Encounter-UC3-EncounterMother20250210.html">Encounter: extension = 1; status = finished; class = ambulatory (ActCode#AMB); period = 2025-02-10 --&gt; 2025-02-10</a></p><p><b>effective</b>: 2025-02-10</p><p><b>performer</b>: <a href="PractitionerRole-UC3-ClaudiaFruehblickAtFrauenzimmer.html">PractitionerRole Arzt/Ärztin</a></p><blockquote><p><b>component</b></p><p><b>code</b>: <span title="Codes:{http://loinc.org 8480-6}">Systolic blood pressure</span></p><p><b>value</b>: 120 millimeter of mercury<span style="background: LightGoldenRodYellow"> (Details: UCUM  codemm[Hg] = 'mm[Hg]')</span></p></blockquote><blockquote><p><b>component</b></p><p><b>code</b>: <span title="Codes:{http://loinc.org 8462-4}">Diastolic blood pressure</span></p><p><b>value</b>: 75 millimeter of mercury<span style="background: LightGoldenRodYellow"> (Details: UCUM  codemm[Hg] = 'mm[Hg]')</span></p></blockquote></div>
        </text>
        <status value="final"/>
        <category>
          <coding>
            <system value="http://terminology.hl7.org/CodeSystem/observation-category"/>
            <code value="vital-signs"/>
            <display value="Vital Signs"/>
          </coding>
        </category>
        <code>
          <coding>
            <system value="http://loinc.org"/>
            <code value="85354-9"/>
            <display value="Blood pressure panel with all children optional"/>
          </coding>
        </code>
        <subject>
          <reference value="Patient/UC3-SophieDoppelherz"/>
        </subject>
        <encounter>
          <reference value="Encounter/UC3-EncounterMother20250210"/>
        </encounter>
        <effectiveDateTime value="2025-02-10"/>
        <performer>
          <reference value="PractitionerRole/UC3-ClaudiaFruehblickAtFrauenzimmer"/>
        </performer>
        <component>
          <code>
            <coding>
              <system value="http://loinc.org"/>
              <code value="8480-6"/>
              <display value="Systolic blood pressure"/>
            </coding>
          </code>
          <valueQuantity>
            <value value="120"/>
            <unit value="millimeter of mercury"/>
            <system value="http://unitsofmeasure.org"/>
            <code value="mm[Hg]"/>
          </valueQuantity>
        </component>
        <component>
          <code>
            <coding>
              <system value="http://loinc.org"/>
              <code value="8462-4"/>
              <display value="Diastolic blood pressure"/>
            </coding>
          </code>
          <valueQuantity>
            <value value="75"/>
            <unit value="millimeter of mercury"/>
            <system value="http://unitsofmeasure.org"/>
            <code value="mm[Hg]"/>
          </valueQuantity>
        </component>
      </Observation>
    </resource>
  </entry>
  <entry>
    <fullUrl value="http://test.fhir.ch/r4/Observation/UC3-UrineFinding-20250210"/>
    <resource>
      <Observation>
        <id value="UC3-UrineFinding-20250210"/>
        <language value="de-CH"/>
        <text>
          <status value="generated"/><div xmlns="http://www.w3.org/1999/xhtml" xml:lang="de-CH" lang="de-CH"><a name="Observation_UC3-UrineFinding-20250210"> </a><p class="res-header-id"><b>Generated Narrative: Observation UC3-UrineFinding-20250210</b></p><a name="UC3-UrineFinding-20250210"> </a><a name="hcUC3-UrineFinding-20250210"> </a><div style="display: inline-block; background-color: #d9e0e7; padding: 6px; margin: 4px; border: 1px solid #8da1b4; border-radius: 5px; line-height: 60%"><p style="margin-bottom: 0px">Language: de-CH</p></div><p><b>status</b>: Final</p><p><b>code</b>: <span title="Codes:{http://snomed.info/sct 417597005}">Urine dipstick test finding (finding)</span></p><p><b>subject</b>: <a href="Patient-UC3-SophieDoppelherz.html">Sophie Doppelherz  Female, DoB: 1992-07-22 ( Medical record number)</a></p><p><b>encounter</b>: <a href="Encounter-UC3-EncounterMother20250210.html">Encounter: extension = 1; status = finished; class = ambulatory (ActCode#AMB); period = 2025-02-10 --&gt; 2025-02-10</a></p><p><b>effective</b>: 2025-02-10</p><p><b>performer</b>: <a href="PractitionerRole-UC3-ClaudiaFruehblickAtFrauenzimmer.html">PractitionerRole Arzt/Ärztin</a></p><p><b>value</b>: bland</p></div>
        </text>
        <status value="final"/>
        <code>
          <coding>
            <system value="http://snomed.info/sct"/>
            <code value="417597005"/>
            <display value="Urine dipstick test finding (finding)"/>
          </coding>
        </code>
        <subject>
          <reference value="Patient/UC3-SophieDoppelherz"/>
        </subject>
        <encounter>
          <reference value="Encounter/UC3-EncounterMother20250210"/>
        </encounter>
        <effectiveDateTime value="2025-02-10"/>
        <performer>
          <reference value="PractitionerRole/UC3-ClaudiaFruehblickAtFrauenzimmer"/>
        </performer>
        <valueString value="bland"/>
      </Observation>
    </resource>
  </entry>
  <entry>
    <fullUrl value="http://test.fhir.ch/r4/Appointment/UC3-Appointment20250310"/>
    <resource>
      <Appointment>
        <id value="UC3-Appointment20250310"/>
        <language value="de-CH"/>
        <text>
          <status value="generated"/><div xmlns="http://www.w3.org/1999/xhtml" xml:lang="de-CH" lang="de-CH"><a name="Appointment_UC3-Appointment20250310"> </a><p class="res-header-id"><b>Generated Narrative: Appointment UC3-Appointment20250310</b></p><a name="UC3-Appointment20250310"> </a><a name="hcUC3-Appointment20250310"> </a><div style="display: inline-block; background-color: #d9e0e7; padding: 6px; margin: 4px; border: 1px solid #8da1b4; border-radius: 5px; line-height: 60%"><p style="margin-bottom: 0px">Language: de-CH</p></div><p><b>status</b>: Booked</p><p><b>start</b>: 2025-03-10 14:30:00+0100</p><p><b>end</b>: 2025-03-10 15:00:00+0100</p><blockquote><p><b>participant</b></p><p><b>actor</b>: <a href="Patient-UC3-SophieDoppelherz.html">Sophie Doppelherz  Female, DoB: 1992-07-22 ( Medical record number)</a></p><p><b>required</b>: Required</p><p><b>status</b>: Accepted</p></blockquote><blockquote><p><b>participant</b></p><p><b>actor</b>: <a href="PractitionerRole-UC3-ClaudiaFruehblickAtFrauenzimmer.html">PractitionerRole Arzt/Ärztin</a></p><p><b>required</b>: Required</p><p><b>status</b>: Accepted</p></blockquote></div>
        </text>
        <status value="booked"/>
        <start value="2025-03-10T14:30:00+01:00"/>
        <end value="2025-03-10T15:00:00+01:00"/>
        <participant>
          <actor>
            <reference value="Patient/UC3-SophieDoppelherz"/>
          </actor>
          <required value="required"/>
          <status value="accepted"/>
        </participant>
        <participant>
          <actor>
            <reference value="PractitionerRole/UC3-ClaudiaFruehblickAtFrauenzimmer"/>
          </actor>
          <required value="required"/>
          <status value="accepted"/>
        </participant>
      </Appointment>
    </resource>
  </entry>
  <entry>
    <fullUrl value="http://test.fhir.ch/r4/Encounter/UC3-EncounterChildA20250210"/>
    <resource>
      <Encounter>
        <id value="UC3-EncounterChildA20250210"/>
        <language value="de-CH"/>
        <text>
          <status value="generated"/><div xmlns="http://www.w3.org/1999/xhtml" xml:lang="de-CH" lang="de-CH"><a name="Encounter_UC3-EncounterChildA20250210"> </a><p class="res-header-id"><b>Generated Narrative: Encounter UC3-EncounterChildA20250210</b></p><a name="UC3-EncounterChildA20250210"> </a><a name="hcUC3-EncounterChildA20250210"> </a><div style="display: inline-block; background-color: #d9e0e7; padding: 6px; margin: 4px; border: 1px solid #8da1b4; border-radius: 5px; line-height: 60%"><p style="margin-bottom: 0px">Language: de-CH</p></div><p><b>status</b>: Finished</p><p><b>class</b>: <a href="http://terminology.hl7.org/7.0.1/CodeSystem-v3-ActCode.html#v3-ActCode-AMB">ActCode: AMB</a> (ambulatory)</p><p><b>subject</b>: <a href="Patient-UC3-ChildA.html">Anonymous Patient (no stated gender), DoB Unknown ( Patient internal identifier: A)</a></p><h3>Participants</h3><table class="grid"><tr><td style="display: none">-</td><td><b>Individual</b></td></tr><tr><td style="display: none">*</td><td><a href="PractitionerRole-UC3-ClaudiaFruehblickAtFrauenzimmer.html">PractitionerRole Arzt/Ärztin</a></td></tr></table><p><b>period</b>: 2025-02-10 --&gt; 2025-02-10</p><p><b>partOf</b>: <a href="Encounter-UC3-EncounterMother20250210.html">Encounter: extension = 1; status = finished; class = ambulatory (ActCode#AMB); period = 2025-02-10 --&gt; 2025-02-10</a></p></div>
        </text>
        <status value="finished"/>
        <class>
          <system value="http://terminology.hl7.org/CodeSystem/v3-ActCode"/>
          <code value="AMB"/>
          <display value="ambulatory"/>
        </class>
        <subject>
          <reference value="Patient/UC3-ChildA"/>
        </subject>
        <participant>
          <individual>
            <reference value="PractitionerRole/UC3-ClaudiaFruehblickAtFrauenzimmer"/>
          </individual>
        </participant>
        <period>
          <start value="2025-02-10"/>
          <end value="2025-02-10"/>
        </period>
        <partOf>
          <reference value="Encounter/UC3-EncounterMother20250210"/>
        </partOf>
      </Encounter>
    </resource>
  </entry>
  <entry>
    <fullUrl value="http://test.fhir.ch/r4/Observation/UC3-FetalHeartFeatureChildA-20250210"/>
    <resource>
      <Observation>
        <id value="UC3-FetalHeartFeatureChildA-20250210"/>
        <language value="de-CH"/>
        <text>
          <status value="generated"/><div xmlns="http://www.w3.org/1999/xhtml" xml:lang="de-CH" lang="de-CH"><a name="Observation_UC3-FetalHeartFeatureChildA-20250210"> </a><p class="res-header-id"><b>Generated Narrative: Observation UC3-FetalHeartFeatureChildA-20250210</b></p><a name="UC3-FetalHeartFeatureChildA-20250210"> </a><a name="hcUC3-FetalHeartFeatureChildA-20250210"> </a><div style="display: inline-block; background-color: #d9e0e7; padding: 6px; margin: 4px; border: 1px solid #8da1b4; border-radius: 5px; line-height: 60%"><p style="margin-bottom: 0px">Language: de-CH</p></div><p><b>status</b>: Final</p><p><b>code</b>: <span title="Codes:{http://snomed.info/sct 364620002}">Fetal heart feature (observable entity)</span></p><p><b>subject</b>: <a href="Patient-UC3-ChildA.html">Anonymous Patient (no stated gender), DoB Unknown ( Patient internal identifier: A)</a></p><p><b>encounter</b>: <a href="Encounter-UC3-EncounterChildA20250210.html">Encounter: status = finished; class = ambulatory (ActCode#AMB); period = 2025-02-10 --&gt; 2025-02-10</a></p><p><b>effective</b>: 2025-02-10</p><p><b>performer</b>: <a href="PractitionerRole-UC3-ClaudiaFruehblickAtFrauenzimmer.html">PractitionerRole Arzt/Ärztin</a></p><p><b>value</b>: 155 /min</p></div>
        </text>
        <status value="final"/>
        <code>
          <coding>
            <system value="http://snomed.info/sct"/>
            <code value="364620002"/>
            <display value="Fetal heart feature (observable entity)"/>
          </coding>
        </code>
        <subject>
          <reference value="Patient/UC3-ChildA"/>
        </subject>
        <encounter>
          <reference value="Encounter/UC3-EncounterChildA20250210"/>
        </encounter>
        <effectiveDateTime value="2025-02-10"/>
        <performer>
          <reference value="PractitionerRole/UC3-ClaudiaFruehblickAtFrauenzimmer"/>
        </performer>
        <valueString value="155 /min"/>
      </Observation>
    </resource>
  </entry>
  <entry>
    <fullUrl value="http://test.fhir.ch/r4/Encounter/UC3-EncounterChildB20250210"/>
    <resource>
      <Encounter>
        <id value="UC3-EncounterChildB20250210"/>
        <language value="de-CH"/>
        <text>
          <status value="generated"/><div xmlns="http://www.w3.org/1999/xhtml" xml:lang="de-CH" lang="de-CH"><a name="Encounter_UC3-EncounterChildB20250210"> </a><p class="res-header-id"><b>Generated Narrative: Encounter UC3-EncounterChildB20250210</b></p><a name="UC3-EncounterChildB20250210"> </a><a name="hcUC3-EncounterChildB20250210"> </a><div style="display: inline-block; background-color: #d9e0e7; padding: 6px; margin: 4px; border: 1px solid #8da1b4; border-radius: 5px; line-height: 60%"><p style="margin-bottom: 0px">Language: de-CH</p></div><p><b>status</b>: Finished</p><p><b>class</b>: <a href="http://terminology.hl7.org/7.0.1/CodeSystem-v3-ActCode.html#v3-ActCode-AMB">ActCode: AMB</a> (ambulatory)</p><p><b>subject</b>: <a href="Patient-UC3-ChildB.html">Anonymous Patient (no stated gender), DoB Unknown ( Patient internal identifier: B)</a></p><h3>Participants</h3><table class="grid"><tr><td style="display: none">-</td><td><b>Individual</b></td></tr><tr><td style="display: none">*</td><td><a href="PractitionerRole-UC3-ClaudiaFruehblickAtFrauenzimmer.html">PractitionerRole Arzt/Ärztin</a></td></tr></table><p><b>period</b>: 2025-02-10 --&gt; 2025-02-10</p><p><b>partOf</b>: <a href="Encounter-UC3-EncounterMother20250210.html">Encounter: extension = 1; status = finished; class = ambulatory (ActCode#AMB); period = 2025-02-10 --&gt; 2025-02-10</a></p></div>
        </text>
        <status value="finished"/>
        <class>
          <system value="http://terminology.hl7.org/CodeSystem/v3-ActCode"/>
          <code value="AMB"/>
          <display value="ambulatory"/>
        </class>
        <subject>
          <reference value="Patient/UC3-ChildB"/>
        </subject>
        <participant>
          <individual>
            <reference value="PractitionerRole/UC3-ClaudiaFruehblickAtFrauenzimmer"/>
          </individual>
        </participant>
        <period>
          <start value="2025-02-10"/>
          <end value="2025-02-10"/>
        </period>
        <partOf>
          <reference value="Encounter/UC3-EncounterMother20250210"/>
        </partOf>
      </Encounter>
    </resource>
  </entry>
  <entry>
    <fullUrl value="http://test.fhir.ch/r4/Observation/UC3-FetalHeartFeatureChildB-20250210"/>
    <resource>
      <Observation>
        <id value="UC3-FetalHeartFeatureChildB-20250210"/>
        <language value="de-CH"/>
        <text>
          <status value="generated"/><div xmlns="http://www.w3.org/1999/xhtml" xml:lang="de-CH" lang="de-CH"><a name="Observation_UC3-FetalHeartFeatureChildB-20250210"> </a><p class="res-header-id"><b>Generated Narrative: Observation UC3-FetalHeartFeatureChildB-20250210</b></p><a name="UC3-FetalHeartFeatureChildB-20250210"> </a><a name="hcUC3-FetalHeartFeatureChildB-20250210"> </a><div style="display: inline-block; background-color: #d9e0e7; padding: 6px; margin: 4px; border: 1px solid #8da1b4; border-radius: 5px; line-height: 60%"><p style="margin-bottom: 0px">Language: de-CH</p></div><p><b>status</b>: Final</p><p><b>code</b>: <span title="Codes:{http://snomed.info/sct 364620002}">Fetal heart feature (observable entity)</span></p><p><b>subject</b>: <a href="Patient-UC3-ChildB.html">Anonymous Patient (no stated gender), DoB Unknown ( Patient internal identifier: B)</a></p><p><b>encounter</b>: <a href="Encounter-UC3-EncounterChildA20250210.html">Encounter: status = finished; class = ambulatory (ActCode#AMB); period = 2025-02-10 --&gt; 2025-02-10</a></p><p><b>effective</b>: 2025-02-10</p><p><b>performer</b>: <a href="PractitionerRole-UC3-ClaudiaFruehblickAtFrauenzimmer.html">PractitionerRole Arzt/Ärztin</a></p><p><b>value</b>: 155 /min</p></div>
        </text>
        <status value="final"/>
        <code>
          <coding>
            <system value="http://snomed.info/sct"/>
            <code value="364620002"/>
            <display value="Fetal heart feature (observable entity)"/>
          </coding>
        </code>
        <subject>
          <reference value="Patient/UC3-ChildB"/>
        </subject>
        <encounter>
          <reference value="Encounter/UC3-EncounterChildA20250210"/>
        </encounter>
        <effectiveDateTime value="2025-02-10"/>
        <performer>
          <reference value="PractitionerRole/UC3-ClaudiaFruehblickAtFrauenzimmer"/>
        </performer>
        <valueString value="155 /min"/>
      </Observation>
    </resource>
  </entry>
</Bundle>