<?xml version="1.0" encoding="UTF-8"?>

<Bundle xmlns="http://hl7.org/fhir">
  <id value="50Doc-HIV-viremia"/>
  <identifier>
    <system value="urn:ietf:rfc:3986"/>
    <value value="urn:uuid:3401332d-6012-4434-9a90-6331adb23aab"/>
  </identifier>
  <type value="document"/>
  <timestamp value="2024-11-06T12:00:00+02:00"/>
  <entry>
    <fullUrl value="urn:uuid:73164039-99ee-4932-8988-b0ea75d6b166"/>
    <resource>
      <Composition>
        <id value="73164039-99ee-4932-8988-b0ea75d6b166"/>
        <language value="de-CH"/>
        <identifier>
          <system value="urn:ietf:rfc:3986"/>
          <value value="urn:uuid:3401332d-6012-4434-9a90-6331adb23aab"/>
        </identifier>
        <status value="final"/>
        <type>
          <coding>
            <system value="http://snomed.info/sct"/>
            <version value="http://snomed.info/sct/2011000195101"/>
            <code value="4241000179101"/>
            <display value="Laborbericht"/>
          </coding>
          <coding>
            <system value="http://loinc.org"/>
            <code value="11502-2"/>
            <display value="Laboratory report"/>
          </coding>
        </type>
        <subject>
          <reference value="urn:uuid:c843215d-d465-40df-865c-98fe93ff2094"/>
        </subject>
        <date value="2024-11-06T12:00:00+02:00"/>
        <author>
          <reference value="urn:uuid:15297076-ccf5-471e-a811-ef3fcf2dcc72"/>
        </author>
        <title value="Laborbericht vom 6.11.2024"/>
        <section>
          <title value="Analyseergebnisse der mikrobiologischen Untersuchung"/>
          <code>
            <coding>
              <system value="http://loinc.org"/>
              <code value="18725-2"/>
              <display value="Microbiology studies (set)"/>
            </coding>
          </code>
          <entry>
            <reference value="urn:uuid:70087c84-4dfe-4159-be17-cf388e93656d"/>
          </entry>
        </section>
      </Composition>
    </resource>
  </entry>
  <entry>
    <fullUrl value="urn:uuid:c843215d-d465-40df-865c-98fe93ff2094"/>
    <resource>
      <Patient>
        <id value="c843215d-d465-40df-865c-98fe93ff2094"/>
        <identifier>
          <system value="urn:oid:2.16.756.5.32"/>
          <value value="7561234567897"/>
        </identifier>
        <name>
          <extension url="http://fhir.ch/ig/ch-elm/StructureDefinition/ch-elm-ext-hiv-code">
            <valueString value="H5"/>
          </extension>
          <family>
            <extension url="http://hl7.org/fhir/StructureDefinition/data-absent-reason">
              <valueCode value="masked"/>
            </extension>
          </family>
          <given>
            <extension url="http://hl7.org/fhir/StructureDefinition/data-absent-reason">
              <valueCode value="masked"/>
            </extension>
          </given>
        </name>
        <gender value="female"/>
        <birthDate value="1981-02-07"/>
        <address>
          <use value="home"/>
          <city value="Carouge"/>
          <state value="GE"/>
          <postalCode value="1227"/>
          <country value="CH">
            <extension url="http://hl7.org/fhir/StructureDefinition/iso21090-SC-coding">
              <valueCoding>
                <system value="urn:iso:std:iso:3166"/>
                <code value="CH"/>
              </valueCoding>
            </extension>
          </country>
        </address>
      </Patient>
    </resource>
  </entry>
  <entry>
    <fullUrl value="urn:uuid:15297076-ccf5-471e-a811-ef3fcf2dcc72"/>
    <resource>
      <Organization>
        <id value="15297076-ccf5-471e-a811-ef3fcf2dcc72"/>
        <identifier>
          <system value="urn:oid:2.51.1.3"/>
          <value value="7601002331470"/>
        </identifier>
        <name value="SanLab"/>
      </Organization>
    </resource>
  </entry>
  <entry>
    <fullUrl value="urn:uuid:70087c84-4dfe-4159-be17-cf388e93656d"/>
    <resource>
      <Observation>
        <id value="70087c84-4dfe-4159-be17-cf388e93656d"/>
        <status value="final"/>
        <category>
          <coding>
            <system value="http://terminology.hl7.org/CodeSystem/observation-category"/>
            <code value="laboratory"/>
            <display value="Laboratory"/>
          </coding>
        </category>
        <code>
          <coding>
            <system value="http://loinc.org"/>
            <code value="62469-2"/>
          </coding>
        </code>
        <subject>
          <reference value="urn:uuid:c843215d-d465-40df-865c-98fe93ff2094"/>
        </subject>
        <effectiveDateTime value="2024-11-04T14:20:00+02:00"/>
        <performer>
          <reference value="urn:uuid:15297076-ccf5-471e-a811-ef3fcf2dcc72"/>
        </performer>
        <valueQuantity>
          <value value="65168"/>
          <unit value="{Copies}/mL"/>
          <system value="http://unitsofmeasure.org"/>
          <code value="1/mL"/>
        </valueQuantity>
        <interpretation>
          <coding>
            <system value="http://terminology.hl7.org/CodeSystem/v3-ObservationInterpretation"/>
            <code value="POS"/>
            <display value="Positive"/>
          </coding>
        </interpretation>
        <specimen>
          <reference value="urn:uuid:5fb0b52d-547e-4be6-9423-5b07e4f1f231"/>
        </specimen>
      </Observation>
    </resource>
  </entry>
  <entry>
    <fullUrl value="urn:uuid:1f69f396-7a49-479b-b152-07ba406bbf81"/>
    <resource>
      <Practitioner>
        <id value="1f69f396-7a49-479b-b152-07ba406bbf81"/>
        <identifier>
          <system value="urn:oid:2.51.1.3"/>
          <value value="7601000000514"/>
        </identifier>
        <name>
          <family value="Hauser"/>
          <given value="Peter"/>
        </name>
        <telecom>
          <system value="phone"/>
          <value value="+41 79 222 33 44"/>
        </telecom>
        <telecom>
          <system value="email"/>
          <value value="peter.hauser@hauserpraxis.ch"/>
        </telecom>
      </Practitioner>
    </resource>
  </entry>
  <entry>
    <fullUrl value="urn:uuid:d210fd6b-9bd8-4e3d-826c-3b69ee936089"/>
    <resource>
      <Organization>
        <id value="d210fd6b-9bd8-4e3d-826c-3b69ee936089"/>
        <identifier>
          <system value="urn:oid:2.16.756.5.45"/>
          <value value="A74966168"/>
        </identifier>
        <name value="Praxis Dr. Hauser"/>
        <address>
          <line value="Hauptstrasse 10">
            <extension url="http://hl7.org/fhir/StructureDefinition/iso21090-ADXP-streetName">
              <valueString value="Hauptstrasse"/>
            </extension>
            <extension url="http://hl7.org/fhir/StructureDefinition/iso21090-ADXP-houseNumber">
              <valueString value="10"/>
            </extension>
          </line>
          <city value="Solothurn"/>
          <postalCode value="4500"/>
        </address>
      </Organization>
    </resource>
  </entry>
  <entry>
    <fullUrl value="urn:uuid:035eeb60-3ccd-41c3-95c9-e7f0386e52fc"/>
    <resource>
      <PractitionerRole>
        <id value="035eeb60-3ccd-41c3-95c9-e7f0386e52fc"/>
        <practitioner>
          <reference value="urn:uuid:1f69f396-7a49-479b-b152-07ba406bbf81"/>
        </practitioner>
        <organization>
          <reference value="urn:uuid:d210fd6b-9bd8-4e3d-826c-3b69ee936089"/>
        </organization>
      </PractitionerRole>
    </resource>
  </entry>
  <entry>
    <fullUrl value="urn:uuid:5fb0b52d-547e-4be6-9423-5b07e4f1f231"/>
    <resource>
      <Specimen>
        <id value="5fb0b52d-547e-4be6-9423-5b07e4f1f231"/>
        <type>
          <text value="Material declared by Observation.code or non-mandatory"/>
        </type>
        <subject>
          <reference value="urn:uuid:c843215d-d465-40df-865c-98fe93ff2094"/>
        </subject>
        <collection>
          <collectedDateTime value="2024-11-01T14:20:00+02:00"/>
        </collection>
      </Specimen>
    </resource>
  </entry>
  <entry>
    <fullUrl value="urn:uuid:2779825f-c7cc-4916-ac47-fb78ee8d5091"/>
    <resource>
      <ServiceRequest>
        <id value="2779825f-c7cc-4916-ac47-fb78ee8d5091"/>
        <identifier>
          <value value="26500923675"/>
        </identifier>
        <status value="completed"/>
        <intent value="order"/>
        <code>
          <coding>
            <system value="http://loinc.org"/>
            <code value="62469-2"/>
          </coding>
        </code>
        <subject>
          <reference value="urn:uuid:c843215d-d465-40df-865c-98fe93ff2094"/>
        </subject>
        <requester>
          <reference value="urn:uuid:035eeb60-3ccd-41c3-95c9-e7f0386e52fc"/>
        </requester>
        <specimen>
          <reference value="urn:uuid:5fb0b52d-547e-4be6-9423-5b07e4f1f231"/>
        </specimen>
      </ServiceRequest>
    </resource>
  </entry>
  <entry>
    <fullUrl value="urn:uuid:99266b5b-8355-4c50-a46d-1dbdbc681c70"/>
    <resource>
      <DiagnosticReport>
        <id value="99266b5b-8355-4c50-a46d-1dbdbc681c70"/>
        <extension url="http://hl7.org/fhir/5.0/StructureDefinition/extension-DiagnosticReport.composition">
          <valueReference>
            <reference value="urn:uuid:73164039-99ee-4932-8988-b0ea75d6b166"/>
          </valueReference>
        </extension>
        <identifier>
          <system value="urn:ietf:rfc:3986"/>
          <value value="urn:uuid:3401332d-6012-4434-9a90-6331adb23aab"/>
        </identifier>
        <basedOn>
          <reference value="urn:uuid:2779825f-c7cc-4916-ac47-fb78ee8d5091"/>
        </basedOn>
        <status value="final"/>
        <code>
          <coding>
            <system value="http://loinc.org"/>
            <code value="11502-2"/>
            <display value="Laboratory report"/>
          </coding>
        </code>
        <subject>
          <reference value="urn:uuid:c843215d-d465-40df-865c-98fe93ff2094"/>
        </subject>
        <performer>
          <reference value="urn:uuid:15297076-ccf5-471e-a811-ef3fcf2dcc72"/>
        </performer>
        <specimen>
          <reference value="urn:uuid:5fb0b52d-547e-4be6-9423-5b07e4f1f231"/>
        </specimen>
        <result>
          <reference value="urn:uuid:70087c84-4dfe-4159-be17-cf388e93656d"/>
        </result>
      </DiagnosticReport>
    </resource>
  </entry>
</Bundle>