{
  "resourceType" : "Bundle",
  "id" : "UC1-SwissIpsDocument2",
  "meta" : {
    "profile" : ["http://fhir.ch/ig/ch-ips/StructureDefinition/ch-ips-document"]
  },
  "language" : "de-CH",
  "identifier" : {
    "system" : "urn:ietf:rfc:3986",
    "value" : "urn:uuid:fe724e67-ac59-4933-b997-2770cc506f3b"
  },
  "type" : "document",
  "timestamp" : "2024-05-03T09:30:00+02:00",
  "entry" : [{
    "fullUrl" : "urn:uuid:5c3cddfe-bbe6-463f-b76c-3d45bc7998fb",
    "resource" : {
      "resourceType" : "Composition",
      "id" : "5c3cddfe-bbe6-463f-b76c-3d45bc7998fb",
      "meta" : {
        "profile" : ["http://fhir.ch/ig/ch-ips/StructureDefinition/ch-ips-composition"]
      },
      "language" : "de-CH",
      "text" : {
        "status" : "generated",
        "div" : "<div xmlns=\"http://www.w3.org/1999/xhtml\" xml:lang=\"de-CH\" lang=\"de-CH\"><a name=\"Composition_5c3cddfe-bbe6-463f-b76c-3d45bc7998fb\"> </a><p><b>Generated Narrative: Composition</b><a name=\"5c3cddfe-bbe6-463f-b76c-3d45bc7998fb\"> </a><a name=\"hc5c3cddfe-bbe6-463f-b76c-3d45bc7998fb\"> </a></p><div style=\"display: inline-block; background-color: #d9e0e7; padding: 6px; margin: 4px; border: 1px solid #8da1b4; border-radius: 5px; line-height: 60%\"><p style=\"margin-bottom: 0px\">ResourceComposition &quot;5c3cddfe-bbe6-463f-b76c-3d45bc7998fb&quot;  (Language &quot;de-CH&quot;) </p><p style=\"margin-bottom: 0px\">Profile: <a href=\"StructureDefinition-ch-ips-composition.html\">CH IPS Composition</a></p></div><p><b>identifier</b>: <a href=\"http://terminology.hl7.org/5.3.0/NamingSystem-uri.html\" title=\"As defined by RFC 3986 (http://www.ietf.org/rfc/rfc3986.txt)(with many schemes defined in many RFCs). For OIDs and UUIDs, use the URN form (urn:oid:(note: lowercase) and urn:uuid:). See http://www.ietf.org/rfc/rfc3001.txt and http://www.ietf.org/rfc/rfc4122.txt \r\n\r\nThis oid is used as an identifier II.root to indicate the the extension is an absolute URI (technically, an IRI). Typically, this is used for OIDs and GUIDs. Note that when this OID is used with OIDs and GUIDs, the II.extension should start with urn:oid or urn:uuid: \r\n\r\nNote that this OID is created to aid with interconversion between CDA and FHIR - FHIR uses urn:ietf:rfc:3986 as equivalent to this OID. URIs as identifiers appear more commonly in FHIR.\r\n\r\nThis OID may also be used in CD.codeSystem.\">Uniform Resource Identifier (URI)</a>/urn:uuid:fe724e67-ac59-4933-b997-2770cc506f3b</p><p><b>status</b>: final</p><p><b>type</b>: Patient summary Document <span style=\"background: LightGoldenRodYellow; margin: 4px; border: 1px solid khaki\"> (<a href=\"https://loinc.org/\">LOINC</a>#60591-5)</span></p><p><b>date</b>: 2024-05-03 09:30:00+0200</p><p><b>author</b>: See on this page: urn:uuid:869a4dd9-3a4a-4838-ad1e-42453d341147: Martina Meier @ Spital</p><p><b>title</b>: Patient Summary for IPS Switerland</p><p><b>confidentiality</b>: N</p><h3>Attesters</h3><table class=\"grid\"><tr><td style=\"display: none\">-</td><td><b>Mode</b></td><td><b>Party</b></td></tr><tr><td style=\"display: none\">*</td><td>legal</td><td>See on this page: urn:uuid:4d4e3587-42eb-4921-8c87-8bbf89b7eb4b: Martina Meier</td></tr></table><p><b>custodian</b>: See on this page: urn:uuid:a27376ce-fa12-458d-a2dc-f90e63de126b: Spital</p><h3>RelatesTos</h3><table class=\"grid\"><tr><td style=\"display: none\">-</td><td><b>Code</b></td><td><b>Target[x]</b></td></tr><tr><td style=\"display: none\">*</td><td>replaces</td><td><a href=\"http://terminology.hl7.org/5.3.0/NamingSystem-uri.html\" title=\"As defined by RFC 3986 (http://www.ietf.org/rfc/rfc3986.txt)(with many schemes defined in many RFCs). For OIDs and UUIDs, use the URN form (urn:oid:(note: lowercase) and urn:uuid:). See http://www.ietf.org/rfc/rfc3001.txt and http://www.ietf.org/rfc/rfc4122.txt \r\n\r\nThis oid is used as an identifier II.root to indicate the the extension is an absolute URI (technically, an IRI). Typically, this is used for OIDs and GUIDs. Note that when this OID is used with OIDs and GUIDs, the II.extension should start with urn:oid or urn:uuid: \r\n\r\nNote that this OID is created to aid with interconversion between CDA and FHIR - FHIR uses urn:ietf:rfc:3986 as equivalent to this OID. URIs as identifiers appear more commonly in FHIR.\r\n\r\nThis OID may also be used in CD.codeSystem.\">Uniform Resource Identifier (URI)</a>/urn:uuid:22f9773e-1a6b-4561-8642-849f15b43b02</td></tr></table><h3>Events</h3><table class=\"grid\"><tr><td style=\"display: none\">-</td><td><b>Code</b></td><td><b>Period</b></td></tr><tr><td style=\"display: none\">*</td><td>care provision <span style=\"background: LightGoldenRodYellow; margin: 4px; border: 1px solid khaki\"> (<a href=\"http://terminology.hl7.org/5.5.0/CodeSystem-v3-ActClass.html\">ActClass</a>#PCPR)</span></td><td>2024-01-11 10:00:00+0100 --&gt; 2024-05-03 09:30:00+0200</td></tr></table></div>"
      },
      "identifier" : {
        "system" : "urn:ietf:rfc:3986",
        "value" : "urn:uuid:fe724e67-ac59-4933-b997-2770cc506f3b"
      },
      "status" : "final",
      "type" : {
        "coding" : [{
          "system" : "http://loinc.org",
          "code" : "60591-5",
          "display" : "Patient summary Document"
        }]
      },
      "subject" : {
        "reference" : "urn:uuid:8383926c-ece1-4384-94bc-b4250b4cb71b",
        "type" : "Patient",
        "display" : "Monika Wegmüller"
      },
      "date" : "2024-05-03T09:30:00+02:00",
      "author" : [{
        "reference" : "urn:uuid:869a4dd9-3a4a-4838-ad1e-42453d341147",
        "type" : "PractitionerRole",
        "display" : "Martina Meier @ Spital"
      }],
      "title" : "Patient Summary for IPS Switerland",
      "confidentiality" : "N",
      "_confidentiality" : {
        "extension" : [{
          "url" : "http://fhir.ch/ig/ch-core/StructureDefinition/ch-ext-epr-confidentialitycode",
          "valueCodeableConcept" : {
            "coding" : [{
              "system" : "http://snomed.info/sct",
              "code" : "17621005",
              "display" : "Normal (qualifier value)"
            }]
          }
        }]
      },
      "attester" : [{
        "mode" : "legal",
        "party" : {
          "reference" : "urn:uuid:4d4e3587-42eb-4921-8c87-8bbf89b7eb4b",
          "type" : "Practitioner",
          "display" : "Martina Meier"
        }
      }],
      "custodian" : {
        "reference" : "urn:uuid:a27376ce-fa12-458d-a2dc-f90e63de126b",
        "type" : "Organization",
        "display" : "Spital"
      },
      "relatesTo" : [{
        "code" : "replaces",
        "targetIdentifier" : {
          "system" : "urn:ietf:rfc:3986",
          "value" : "urn:uuid:22f9773e-1a6b-4561-8642-849f15b43b02"
        }
      }],
      "event" : [{
        "code" : [{
          "coding" : [{
            "system" : "http://terminology.hl7.org/CodeSystem/v3-ActClass",
            "code" : "PCPR",
            "display" : "care provision"
          }]
        }],
        "period" : {
          "start" : "2024-01-11T10:00:00+01:00",
          "end" : "2024-05-03T09:30:00+02:00"
        }
      }],
      "section" : [{
        "title" : "Medikation",
        "code" : {
          "coding" : [{
            "system" : "http://loinc.org",
            "code" : "10160-0",
            "display" : "History of Medication use Narrative"
          }]
        },
        "text" : {
          "status" : "generated",
          "div" : "<div xmlns=\"http://www.w3.org/1999/xhtml\">Metformin zur Behandlung des Diabetes mellitus und Beloc Zok zur Behandlung des Bluthochdrucks</div>"
        },
        "entry" : [{
          "reference" : "urn:uuid:88ee1ffb-26d0-49a2-95e4-6212261805a6",
          "type" : "MedicationStatement",
          "display" : "Metformin"
        },
        {
          "reference" : "urn:uuid:c691357a-d4f9-4906-af3a-3d63d4a1d312",
          "type" : "MedicationStatement",
          "display" : "Beloc Zok"
        },
        {
          "reference" : "urn:uuid:a90a2282-a79a-4f14-8f10-ce8619472595",
          "type" : "MedicationRequest",
          "display" : "Beloc Zok"
        }]
      },
      {
        "title" : "Allergien und Intoleranzen",
        "code" : {
          "coding" : [{
            "system" : "http://loinc.org",
            "code" : "48765-2",
            "display" : "Allergies and adverse reactions Document"
          }]
        },
        "text" : {
          "status" : "generated",
          "div" : "<div xmlns=\"http://www.w3.org/1999/xhtml\">Keine bekannten Allergien</div>"
        },
        "entry" : [{
          "reference" : "urn:uuid:27da84cc-526a-4098-afb5-f08c7836d893",
          "type" : "AllergyIntolerance",
          "display" : "Keine bekannten Allergien"
        }]
      },
      {
        "title" : "Problemliste",
        "code" : {
          "coding" : [{
            "system" : "http://loinc.org",
            "code" : "11450-4",
            "display" : "Problem list - Reported"
          }]
        },
        "text" : {
          "status" : "generated",
          "div" : "<div xmlns=\"http://www.w3.org/1999/xhtml\">Diabetes mellitus type 2 und Bluthochdruck</div>"
        },
        "entry" : [{
          "reference" : "urn:uuid:506b9fef-be0a-4398-bb7e-7d14c311912f",
          "type" : "Condition",
          "display" : "Diabetes Mellitus"
        },
        {
          "reference" : "urn:uuid:8a79d459-0d2f-460b-87fd-a7de12d49871",
          "type" : "Condition",
          "display" : "Bluthochdruck"
        }]
      },
      {
        "title" : "Durchgeführte Behandlungen",
        "code" : {
          "coding" : [{
            "system" : "http://loinc.org",
            "code" : "47519-4",
            "display" : "History of Procedures Document"
          }]
        },
        "text" : {
          "status" : "generated",
          "div" : "<div xmlns=\"http://www.w3.org/1999/xhtml\">Blinddarmentfernung 27.09.2000</div>"
        },
        "entry" : [{
          "reference" : "urn:uuid:b5434748-47e9-4dab-a47c-6d0e5dff1fe9",
          "type" : "Procedure",
          "display" : "Appendektomie"
        }]
      },
      {
        "title" : "Impfungen",
        "code" : {
          "coding" : [{
            "system" : "http://loinc.org",
            "code" : "11369-6",
            "display" : "History of Immunization Narrative"
          }]
        },
        "text" : {
          "status" : "generated",
          "div" : "<div xmlns=\"http://www.w3.org/1999/xhtml\">Boostrix 15.09.2017</div>"
        },
        "entry" : [{
          "reference" : "urn:uuid:19efd704-3461-4120-b3cf-a76ae046e150",
          "type" : "Immunization",
          "display" : "DiTePe"
        }]
      },
      {
        "title" : "Vitalzeichen",
        "code" : {
          "coding" : [{
            "system" : "http://loinc.org",
            "code" : "8716-3",
            "display" : "Vital signs"
          }]
        },
        "text" : {
          "status" : "generated",
          "div" : "<div xmlns=\"http://www.w3.org/1999/xhtml\">Körpergewicht: 65 kg, Körpergrösse: 170 cm</div>"
        },
        "entry" : [{
          "reference" : "urn:uuid:db5ef7b0-e946-4260-a604-128b8887a41b",
          "type" : "Observation",
          "display" : "65 kg"
        },
        {
          "reference" : "urn:uuid:07b2e450-a62e-4734-98bf-51462f008e0f",
          "type" : "Observation",
          "display" : "170 cm"
        }]
      },
      {
        "title" : "Sozialanamnese",
        "code" : {
          "coding" : [{
            "system" : "http://loinc.org",
            "code" : "29762-2",
            "display" : "Social history Narrative"
          }]
        },
        "text" : {
          "status" : "generated",
          "div" : "<div xmlns=\"http://www.w3.org/1999/xhtml\">Ehemalige Raucherin</div>"
        },
        "entry" : [{
          "reference" : "urn:uuid:93fe0d81-a547-494e-941c-113506108b76",
          "type" : "Observation",
          "display" : "Ehemalige Raucherin"
        }]
      }]
    }
  },
  {
    "fullUrl" : "urn:uuid:8383926c-ece1-4384-94bc-b4250b4cb71b",
    "resource" : {
      "resourceType" : "Patient",
      "id" : "8383926c-ece1-4384-94bc-b4250b4cb71b",
      "meta" : {
        "profile" : ["http://fhir.ch/ig/ch-ips/StructureDefinition/ch-ips-patient"]
      },
      "text" : {
        "status" : "generated",
        "div" : "<div xmlns=\"http://www.w3.org/1999/xhtml\"><a name=\"Patient_8383926c-ece1-4384-94bc-b4250b4cb71b\"> </a><p><b>Generated Narrative: Patient</b><a name=\"8383926c-ece1-4384-94bc-b4250b4cb71b\"> </a><a name=\"hc8383926c-ece1-4384-94bc-b4250b4cb71b\"> </a></p><div style=\"display: inline-block; background-color: #d9e0e7; padding: 6px; margin: 4px; border: 1px solid #8da1b4; border-radius: 5px; line-height: 60%\"><p style=\"margin-bottom: 0px\">ResourcePatient &quot;8383926c-ece1-4384-94bc-b4250b4cb71b&quot; </p><p style=\"margin-bottom: 0px\">Profile: <a href=\"StructureDefinition-ch-ips-patient.html\">CH IPS Patient</a></p></div><p><b>identifier</b>: Medical record number/987654321</p><p><b>name</b>: Monika Wegmüller </p><p><b>gender</b>: female</p><p><b>birthDate</b>: 1943-05-15</p><p><b>address</b>: Wiesenstr. 12 Zürich 8003 CH </p></div>"
      },
      "identifier" : [{
        "type" : {
          "coding" : [{
            "system" : "http://terminology.hl7.org/CodeSystem/v2-0203",
            "code" : "MR"
          }]
        },
        "system" : "http://example.com/fhir/pid",
        "value" : "987654321"
      }],
      "name" : [{
        "family" : "Wegmüller",
        "given" : ["Monika"]
      }],
      "gender" : "female",
      "birthDate" : "1943-05-15",
      "address" : [{
        "line" : ["Wiesenstr. 12"],
        "city" : "Zürich",
        "postalCode" : "8003",
        "country" : "CH"
      }]
    }
  },
  {
    "fullUrl" : "urn:uuid:4d4e3587-42eb-4921-8c87-8bbf89b7eb4b",
    "resource" : {
      "resourceType" : "Practitioner",
      "id" : "4d4e3587-42eb-4921-8c87-8bbf89b7eb4b",
      "meta" : {
        "profile" : ["http://fhir.ch/ig/ch-ips/StructureDefinition/ch-ips-practitioner"]
      },
      "text" : {
        "status" : "generated",
        "div" : "<div xmlns=\"http://www.w3.org/1999/xhtml\"><a name=\"Practitioner_4d4e3587-42eb-4921-8c87-8bbf89b7eb4b\"> </a><p><b>Generated Narrative: Practitioner</b><a name=\"4d4e3587-42eb-4921-8c87-8bbf89b7eb4b\"> </a><a name=\"hc4d4e3587-42eb-4921-8c87-8bbf89b7eb4b\"> </a></p><div style=\"display: inline-block; background-color: #d9e0e7; padding: 6px; margin: 4px; border: 1px solid #8da1b4; border-radius: 5px; line-height: 60%\"><p style=\"margin-bottom: 0px\">ResourcePractitioner &quot;4d4e3587-42eb-4921-8c87-8bbf89b7eb4b&quot; </p><p style=\"margin-bottom: 0px\">Profile: <a href=\"StructureDefinition-ch-ips-practitioner.html\">CH IPS Practitioner</a></p></div><p><b>identifier</b>: <a href=\"https://www.gs1.org/standards/id-keys/gln\" title=\"Global Location Number\">GLN</a>/7601000234438</p><p><b>name</b>: Martina Meier </p></div>"
      },
      "identifier" : [{
        "system" : "urn:oid:2.51.1.3",
        "value" : "7601000234438"
      }],
      "name" : [{
        "family" : "Meier",
        "given" : ["Martina"]
      }]
    }
  },
  {
    "fullUrl" : "urn:uuid:869a4dd9-3a4a-4838-ad1e-42453d341147",
    "resource" : {
      "resourceType" : "PractitionerRole",
      "id" : "869a4dd9-3a4a-4838-ad1e-42453d341147",
      "meta" : {
        "profile" : ["http://fhir.ch/ig/ch-ips/StructureDefinition/ch-ips-practitionerrole"]
      },
      "text" : {
        "status" : "generated",
        "div" : "<div xmlns=\"http://www.w3.org/1999/xhtml\"><a name=\"PractitionerRole_869a4dd9-3a4a-4838-ad1e-42453d341147\"> </a><p><b>Generated Narrative: PractitionerRole</b><a name=\"869a4dd9-3a4a-4838-ad1e-42453d341147\"> </a><a name=\"hc869a4dd9-3a4a-4838-ad1e-42453d341147\"> </a></p><div style=\"display: inline-block; background-color: #d9e0e7; padding: 6px; margin: 4px; border: 1px solid #8da1b4; border-radius: 5px; line-height: 60%\"><p style=\"margin-bottom: 0px\">ResourcePractitionerRole &quot;869a4dd9-3a4a-4838-ad1e-42453d341147&quot; </p><p style=\"margin-bottom: 0px\">Profile: <a href=\"StructureDefinition-ch-ips-practitionerrole.html\">CH IPS PractitionerRole</a></p></div><p><b>practitioner</b>: See on this page: urn:uuid:4d4e3587-42eb-4921-8c87-8bbf89b7eb4b</p><p><b>organization</b>: See on this page: urn:uuid:a27376ce-fa12-458d-a2dc-f90e63de126b</p></div>"
      },
      "practitioner" : {
        "reference" : "urn:uuid:4d4e3587-42eb-4921-8c87-8bbf89b7eb4b"
      },
      "organization" : {
        "reference" : "urn:uuid:a27376ce-fa12-458d-a2dc-f90e63de126b"
      }
    }
  },
  {
    "fullUrl" : "urn:uuid:a27376ce-fa12-458d-a2dc-f90e63de126b",
    "resource" : {
      "resourceType" : "Organization",
      "id" : "a27376ce-fa12-458d-a2dc-f90e63de126b",
      "meta" : {
        "profile" : ["http://fhir.ch/ig/ch-ips/StructureDefinition/ch-ips-organization"]
      },
      "text" : {
        "status" : "generated",
        "div" : "<div xmlns=\"http://www.w3.org/1999/xhtml\"><a name=\"Organization_a27376ce-fa12-458d-a2dc-f90e63de126b\"> </a><p><b>Generated Narrative: Organization</b><a name=\"a27376ce-fa12-458d-a2dc-f90e63de126b\"> </a><a name=\"hca27376ce-fa12-458d-a2dc-f90e63de126b\"> </a></p><div style=\"display: inline-block; background-color: #d9e0e7; padding: 6px; margin: 4px; border: 1px solid #8da1b4; border-radius: 5px; line-height: 60%\"><p style=\"margin-bottom: 0px\">ResourceOrganization &quot;a27376ce-fa12-458d-a2dc-f90e63de126b&quot; </p><p style=\"margin-bottom: 0px\">Profile: <a href=\"StructureDefinition-ch-ips-organization.html\">CH IPS Organization</a></p></div><p><b>identifier</b>: <a href=\"https://www.gs1.org/standards/id-keys/gln\" title=\"Global Location Number\">GLN</a>/7601000234438</p><p><b>name</b>: Spital</p><p><b>address</b>: Spitalstrasse 2 Zürich 8005 CH </p></div>"
      },
      "identifier" : [{
        "system" : "urn:oid:2.51.1.3",
        "value" : "7601000234438"
      }],
      "name" : "Spital",
      "address" : [{
        "line" : ["Spitalstrasse 2"],
        "city" : "Zürich",
        "postalCode" : "8005",
        "country" : "CH"
      }]
    }
  },
  {
    "fullUrl" : "urn:uuid:88ee1ffb-26d0-49a2-95e4-6212261805a6",
    "resource" : {
      "resourceType" : "MedicationStatement",
      "id" : "88ee1ffb-26d0-49a2-95e4-6212261805a6",
      "meta" : {
        "profile" : ["http://fhir.ch/ig/ch-ips/StructureDefinition/ch-ips-medicationstatement"]
      },
      "text" : {
        "status" : "generated",
        "div" : "<div xmlns=\"http://www.w3.org/1999/xhtml\"><a name=\"MedicationStatement_88ee1ffb-26d0-49a2-95e4-6212261805a6\"> </a><p><b>Generated Narrative: MedicationStatement</b><a name=\"88ee1ffb-26d0-49a2-95e4-6212261805a6\"> </a><a name=\"hc88ee1ffb-26d0-49a2-95e4-6212261805a6\"> </a></p><div style=\"display: inline-block; background-color: #d9e0e7; padding: 6px; margin: 4px; border: 1px solid #8da1b4; border-radius: 5px; line-height: 60%\"><p style=\"margin-bottom: 0px\">ResourceMedicationStatement &quot;88ee1ffb-26d0-49a2-95e4-6212261805a6&quot; </p><p style=\"margin-bottom: 0px\">Profile: <a href=\"StructureDefinition-ch-ips-medicationstatement.html\">CH IPS MedicationStatement</a></p></div><p><b>status</b>: active</p><p><b>medication</b>: <a name=\"hcMetformin\"> </a></p><blockquote><p/><p><a name=\"Metformin\"> </a></p><p><a name=\"hcMetformin\"> </a></p><p><b>code</b>: METFORMIN Axapharm Filmtabl 500 mg <span style=\"background: LightGoldenRodYellow; margin: 4px; border: 1px solid khaki\"> (unknown#7680521101306 &quot;METFORMIN Axapharm Filmtabl 500 mg 50 Stk&quot;)</span></p><p><b>form</b>: Tablette <span style=\"background: LightGoldenRodYellow; margin: 4px; border: 1px solid khaki\"> (<a href=\"http://fhir.ch/ig/ch-term/3.0.0/CodeSystem-edqm-standardterms.html\">EDQM - Standard Terms</a>#10219000 &quot;Tablet&quot;)</span></p><p><b>amount</b>: 50 Tablet (unit of presentation)<span style=\"background: LightGoldenRodYellow\"> (Details: SNOWMED CT code 732936001 = 'Tablet (unit of presentation)')</span>/1 Package - unit of product usage (qualifier value)<span style=\"background: LightGoldenRodYellow\"> (Details: SNOWMED CT code 1681000175101 = 'Package - unit of product usage')</span></p></blockquote><p><b>subject</b>: See on this page: urn:uuid:8383926c-ece1-4384-94bc-b4250b4cb71b: Monika Wegmüller</p><p><b>effective</b>: 2020-03-03 --&gt; (ongoing)</p><p><b>reasonCode</b>: Diabetes mellitus type 2 <span style=\"background: LightGoldenRodYellow; margin: 4px; border: 1px solid khaki\"> ()</span></p><p><b>reasonReference</b>: See on this page: urn:uuid:506b9fef-be0a-4398-bb7e-7d14c311912f: Diabetes Mellitus</p><blockquote><p><b>dosage</b></p><p><b>sequence</b>: 1</p><p><b>patientInstruction</b>: Unzerkaut während oder nach den Mahlzeiten mit ausreichend Flüssigkeit einnehmen</p><p><b>timing</b>: Starting 2020-03-03 , , ?ngen-6?, ?ngen-6?</p><p><b>route</b>: zum Einnehmen <span style=\"background: LightGoldenRodYellow; margin: 4px; border: 1px solid khaki\"> (<a href=\"http://fhir.ch/ig/ch-term/3.0.0/CodeSystem-edqm-standardterms.html\">EDQM - Standard Terms</a>#20053000 &quot;Oral use&quot;)</span></p><blockquote><p><b>doseAndRate</b></p></blockquote></blockquote><hr/><blockquote><p><b>Generated Narrative: Medication #Metformin</b><a name=\"Metformin\"> </a><a name=\"hcMetformin\"> </a></p><p><b>code</b>: METFORMIN Axapharm Filmtabl 500 mg <span style=\"background: LightGoldenRodYellow; margin: 4px; border: 1px solid khaki\"> (unknown#7680521101306 &quot;METFORMIN Axapharm Filmtabl 500 mg 50 Stk&quot;)</span></p><p><b>form</b>: Tablette <span style=\"background: LightGoldenRodYellow; margin: 4px; border: 1px solid khaki\"> (<a href=\"http://fhir.ch/ig/ch-term/3.0.0/CodeSystem-edqm-standardterms.html\">EDQM - Standard Terms</a>#10219000 &quot;Tablet&quot;)</span></p><p><b>amount</b>: 50 Tablet (unit of presentation)<span style=\"background: LightGoldenRodYellow\"> (Details: SNOWMED CT code 732936001 = 'Tablet (unit of presentation)')</span>/1 Package - unit of product usage (qualifier value)<span style=\"background: LightGoldenRodYellow\"> (Details: SNOWMED CT code 1681000175101 = 'Package - unit of product usage')</span></p></blockquote></div>"
      },
      "contained" : [{
        "resourceType" : "Medication",
        "id" : "Metformin",
        "meta" : {
          "profile" : ["http://fhir.ch/ig/ch-ips/StructureDefinition/ch-ips-medication"]
        },
        "code" : {
          "coding" : [{
            "system" : "urn:oid:2.51.1.1",
            "code" : "7680521101306",
            "display" : "METFORMIN Axapharm Filmtabl 500 mg 50 Stk"
          }],
          "text" : "METFORMIN Axapharm Filmtabl 500 mg"
        },
        "form" : {
          "coding" : [{
            "system" : "urn:oid:0.4.0.127.0.16.1.1.2.1",
            "code" : "10219000",
            "display" : "Tablet"
          }],
          "text" : "Tablette"
        },
        "amount" : {
          "numerator" : {
            "value" : 50,
            "unit" : "Tablet (unit of presentation)",
            "system" : "http://snomed.info/sct",
            "code" : "732936001"
          },
          "denominator" : {
            "value" : 1,
            "unit" : "Package - unit of product usage (qualifier value)",
            "system" : "http://snomed.info/sct",
            "code" : "1681000175101"
          }
        }
      }],
      "status" : "active",
      "medicationReference" : {
        "reference" : "#Metformin"
      },
      "subject" : {
        "reference" : "urn:uuid:8383926c-ece1-4384-94bc-b4250b4cb71b",
        "type" : "Patient",
        "display" : "Monika Wegmüller"
      },
      "effectivePeriod" : {
        "start" : "2020-03-03"
      },
      "reasonCode" : [{
        "text" : "Diabetes mellitus type 2"
      }],
      "reasonReference" : [{
        "reference" : "urn:uuid:506b9fef-be0a-4398-bb7e-7d14c311912f",
        "type" : "Condition",
        "display" : "Diabetes Mellitus"
      }],
      "dosage" : [{
        "sequence" : 1,
        "patientInstruction" : "Unzerkaut während oder nach den Mahlzeiten mit ausreichend Flüssigkeit einnehmen",
        "timing" : {
          "repeat" : {
            "boundsPeriod" : {
              "start" : "2020-03-03"
            },
            "when" : ["MORN",
            "EVE"]
          }
        },
        "route" : {
          "coding" : [{
            "system" : "urn:oid:0.4.0.127.0.16.1.1.2.1",
            "code" : "20053000",
            "display" : "Oral use"
          }],
          "text" : "zum Einnehmen"
        },
        "doseAndRate" : [{
          "doseQuantity" : {
            "value" : 1,
            "unit" : "Tablet (unit of presentation)",
            "system" : "http://snomed.info/sct",
            "code" : "732936001"
          }
        }]
      }]
    }
  },
  {
    "fullUrl" : "urn:uuid:c691357a-d4f9-4906-af3a-3d63d4a1d312",
    "resource" : {
      "resourceType" : "MedicationStatement",
      "id" : "c691357a-d4f9-4906-af3a-3d63d4a1d312",
      "meta" : {
        "profile" : ["http://fhir.ch/ig/ch-ips/StructureDefinition/ch-ips-medicationstatement"]
      },
      "text" : {
        "status" : "generated",
        "div" : "<div xmlns=\"http://www.w3.org/1999/xhtml\"><a name=\"MedicationStatement_c691357a-d4f9-4906-af3a-3d63d4a1d312\"> </a><p><b>Generated Narrative: MedicationStatement</b><a name=\"c691357a-d4f9-4906-af3a-3d63d4a1d312\"> </a><a name=\"hcc691357a-d4f9-4906-af3a-3d63d4a1d312\"> </a></p><div style=\"display: inline-block; background-color: #d9e0e7; padding: 6px; margin: 4px; border: 1px solid #8da1b4; border-radius: 5px; line-height: 60%\"><p style=\"margin-bottom: 0px\">ResourceMedicationStatement &quot;c691357a-d4f9-4906-af3a-3d63d4a1d312&quot; </p><p style=\"margin-bottom: 0px\">Profile: <a href=\"StructureDefinition-ch-ips-medicationstatement.html\">CH IPS MedicationStatement</a></p></div><p><b>basedOn</b>: See on this page: urn:uuid:a90a2282-a79a-4f14-8f10-ce8619472595: Beloc Zok</p><p><b>status</b>: active</p><p><b>medication</b>: <a name=\"hcBelocZok\"> </a></p><blockquote><p/><p><a name=\"BelocZok\"> </a></p><p><a name=\"hcBelocZok\"> </a></p><p><b>code</b>: BELOC ZOK Ret Tabl 50 mg <span style=\"background: LightGoldenRodYellow; margin: 4px; border: 1px solid khaki\"> (unknown#7680521101306 &quot;BELOC ZOK Ret Tabl 50 mg 30 Stk&quot;)</span></p><p><b>form</b>: Tablette <span style=\"background: LightGoldenRodYellow; margin: 4px; border: 1px solid khaki\"> (<a href=\"http://fhir.ch/ig/ch-term/3.0.0/CodeSystem-edqm-standardterms.html\">EDQM - Standard Terms</a>#10219000 &quot;Tablet&quot;)</span></p><p><b>amount</b>: 20 Tablet (unit of presentation)<span style=\"background: LightGoldenRodYellow\"> (Details: SNOWMED CT code 732936001 = 'Tablet (unit of presentation)')</span>/1 Package - unit of product usage (qualifier value)<span style=\"background: LightGoldenRodYellow\"> (Details: SNOWMED CT code 1681000175101 = 'Package - unit of product usage')</span></p></blockquote><p><b>subject</b>: See on this page: urn:uuid:8383926c-ece1-4384-94bc-b4250b4cb71b: Monika Wegmüller</p><p><b>effective</b>: 2024-04-26 --&gt; (ongoing)</p><p><b>reasonCode</b>: Bluthochdruck <span style=\"background: LightGoldenRodYellow; margin: 4px; border: 1px solid khaki\"> ()</span></p><p><b>reasonReference</b>: See on this page: urn:uuid:8a79d459-0d2f-460b-87fd-a7de12d49871: Bluthochdruck</p><blockquote><p><b>dosage</b></p><p><b>sequence</b>: 1</p><p><b>patientInstruction</b>: Mit einem Glas Wasser einnehmen</p><p><b>timing</b>: Starting 2024-04-26 , , ?ngen-6?</p><p><b>route</b>: zum Einnehmen <span style=\"background: LightGoldenRodYellow; margin: 4px; border: 1px solid khaki\"> (<a href=\"http://fhir.ch/ig/ch-term/3.0.0/CodeSystem-edqm-standardterms.html\">EDQM - Standard Terms</a>#20053000 &quot;Oral use&quot;)</span></p><blockquote><p><b>doseAndRate</b></p></blockquote></blockquote><blockquote><p><b>dosage</b></p><p><b>sequence</b>: 2</p><p><b>timing</b>: , ?ngen-6?</p><blockquote><p><b>doseAndRate</b></p></blockquote></blockquote><hr/><blockquote><p><b>Generated Narrative: Medication #BelocZok</b><a name=\"BelocZok\"> </a><a name=\"hcBelocZok\"> </a></p><p><b>code</b>: BELOC ZOK Ret Tabl 50 mg <span style=\"background: LightGoldenRodYellow; margin: 4px; border: 1px solid khaki\"> (unknown#7680521101306 &quot;BELOC ZOK Ret Tabl 50 mg 30 Stk&quot;)</span></p><p><b>form</b>: Tablette <span style=\"background: LightGoldenRodYellow; margin: 4px; border: 1px solid khaki\"> (<a href=\"http://fhir.ch/ig/ch-term/3.0.0/CodeSystem-edqm-standardterms.html\">EDQM - Standard Terms</a>#10219000 &quot;Tablet&quot;)</span></p><p><b>amount</b>: 20 Tablet (unit of presentation)<span style=\"background: LightGoldenRodYellow\"> (Details: SNOWMED CT code 732936001 = 'Tablet (unit of presentation)')</span>/1 Package - unit of product usage (qualifier value)<span style=\"background: LightGoldenRodYellow\"> (Details: SNOWMED CT code 1681000175101 = 'Package - unit of product usage')</span></p></blockquote></div>"
      },
      "contained" : [{
        "resourceType" : "Medication",
        "id" : "BelocZok",
        "meta" : {
          "profile" : ["http://fhir.ch/ig/ch-ips/StructureDefinition/ch-ips-medication"]
        },
        "code" : {
          "coding" : [{
            "system" : "urn:oid:2.51.1.1",
            "code" : "7680521101306",
            "display" : "BELOC ZOK Ret Tabl 50 mg 30 Stk"
          }],
          "text" : "BELOC ZOK Ret Tabl 50 mg"
        },
        "form" : {
          "coding" : [{
            "system" : "urn:oid:0.4.0.127.0.16.1.1.2.1",
            "code" : "10219000",
            "display" : "Tablet"
          }],
          "text" : "Tablette"
        },
        "amount" : {
          "numerator" : {
            "value" : 20,
            "unit" : "Tablet (unit of presentation)",
            "system" : "http://snomed.info/sct",
            "code" : "732936001"
          },
          "denominator" : {
            "value" : 1,
            "unit" : "Package - unit of product usage (qualifier value)",
            "system" : "http://snomed.info/sct",
            "code" : "1681000175101"
          }
        }
      }],
      "basedOn" : [{
        "reference" : "urn:uuid:a90a2282-a79a-4f14-8f10-ce8619472595",
        "type" : "MedicationRequest",
        "display" : "Beloc Zok"
      }],
      "status" : "active",
      "medicationReference" : {
        "reference" : "#BelocZok"
      },
      "subject" : {
        "reference" : "urn:uuid:8383926c-ece1-4384-94bc-b4250b4cb71b",
        "type" : "Patient",
        "display" : "Monika Wegmüller"
      },
      "effectivePeriod" : {
        "start" : "2024-04-26"
      },
      "reasonCode" : [{
        "text" : "Bluthochdruck"
      }],
      "reasonReference" : [{
        "reference" : "urn:uuid:8a79d459-0d2f-460b-87fd-a7de12d49871",
        "type" : "Condition",
        "display" : "Bluthochdruck"
      }],
      "dosage" : [{
        "sequence" : 1,
        "patientInstruction" : "Mit einem Glas Wasser einnehmen",
        "timing" : {
          "repeat" : {
            "boundsPeriod" : {
              "start" : "2024-04-26"
            },
            "when" : ["MORN"]
          }
        },
        "route" : {
          "coding" : [{
            "system" : "urn:oid:0.4.0.127.0.16.1.1.2.1",
            "code" : "20053000",
            "display" : "Oral use"
          }],
          "text" : "zum Einnehmen"
        },
        "doseAndRate" : [{
          "doseQuantity" : {
            "value" : 1,
            "unit" : "Tablet (unit of presentation)",
            "system" : "http://snomed.info/sct",
            "code" : "732936001"
          }
        }]
      },
      {
        "sequence" : 2,
        "timing" : {
          "repeat" : {
            "when" : ["EVE"]
          }
        },
        "doseAndRate" : [{
          "doseQuantity" : {
            "value" : 0.5,
            "unit" : "Tablet (unit of presentation)",
            "system" : "http://snomed.info/sct",
            "code" : "732936001"
          }
        }]
      }]
    }
  },
  {
    "fullUrl" : "urn:uuid:a90a2282-a79a-4f14-8f10-ce8619472595",
    "resource" : {
      "resourceType" : "MedicationRequest",
      "id" : "a90a2282-a79a-4f14-8f10-ce8619472595",
      "meta" : {
        "profile" : ["http://fhir.ch/ig/ch-ips/StructureDefinition/ch-ips-medicationrequest"]
      },
      "text" : {
        "status" : "generated",
        "div" : "<div xmlns=\"http://www.w3.org/1999/xhtml\"><a name=\"MedicationRequest_a90a2282-a79a-4f14-8f10-ce8619472595\"> </a><p><b>Generated Narrative: MedicationRequest</b><a name=\"a90a2282-a79a-4f14-8f10-ce8619472595\"> </a><a name=\"hca90a2282-a79a-4f14-8f10-ce8619472595\"> </a></p><div style=\"display: inline-block; background-color: #d9e0e7; padding: 6px; margin: 4px; border: 1px solid #8da1b4; border-radius: 5px; line-height: 60%\"><p style=\"margin-bottom: 0px\">ResourceMedicationRequest &quot;a90a2282-a79a-4f14-8f10-ce8619472595&quot; </p><p style=\"margin-bottom: 0px\">Profile: <a href=\"StructureDefinition-ch-ips-medicationrequest.html\">CH IPS MedicationRequest</a></p></div><p><b>status</b>: active</p><p><b>intent</b>: plan</p><p><b>medication</b>: <a name=\"hcBelocZok\"> </a></p><blockquote><p/><p><a name=\"BelocZok\"> </a></p><p><a name=\"hcBelocZok\"> </a></p><p><b>code</b>: BELOC ZOK Ret Tabl 50 mg <span style=\"background: LightGoldenRodYellow; margin: 4px; border: 1px solid khaki\"> (unknown#7680521101306 &quot;BELOC ZOK Ret Tabl 50 mg 30 Stk&quot;)</span></p><p><b>form</b>: Tablette <span style=\"background: LightGoldenRodYellow; margin: 4px; border: 1px solid khaki\"> (<a href=\"http://fhir.ch/ig/ch-term/3.0.0/CodeSystem-edqm-standardterms.html\">EDQM - Standard Terms</a>#10219000 &quot;Tablet&quot;)</span></p><p><b>amount</b>: 20 Tablet (unit of presentation)<span style=\"background: LightGoldenRodYellow\"> (Details: SNOWMED CT code 732936001 = 'Tablet (unit of presentation)')</span>/1 Package - unit of product usage (qualifier value)<span style=\"background: LightGoldenRodYellow\"> (Details: SNOWMED CT code 1681000175101 = 'Package - unit of product usage')</span></p></blockquote><p><b>subject</b>: See on this page: urn:uuid:8383926c-ece1-4384-94bc-b4250b4cb71b: Monika Wegmüller</p><blockquote><p><b>dosageInstruction</b></p><p><b>sequence</b>: 1</p><p><b>patientInstruction</b>: Mit einem Glas Wasser einnehmen</p><p><b>timing</b>: Starting 2024-04-26 , , ?ngen-6?</p><p><b>route</b>: zum Einnehmen <span style=\"background: LightGoldenRodYellow; margin: 4px; border: 1px solid khaki\"> (<a href=\"http://fhir.ch/ig/ch-term/3.0.0/CodeSystem-edqm-standardterms.html\">EDQM - Standard Terms</a>#20053000 &quot;Oral use&quot;)</span></p><blockquote><p><b>doseAndRate</b></p></blockquote></blockquote><blockquote><p><b>dosageInstruction</b></p><p><b>sequence</b>: 2</p><p><b>timing</b>: , ?ngen-6?</p><blockquote><p><b>doseAndRate</b></p></blockquote></blockquote><hr/><blockquote><p><b>Generated Narrative: Medication #BelocZok</b><a name=\"BelocZok\"> </a><a name=\"hcBelocZok\"> </a></p><p><b>code</b>: BELOC ZOK Ret Tabl 50 mg <span style=\"background: LightGoldenRodYellow; margin: 4px; border: 1px solid khaki\"> (unknown#7680521101306 &quot;BELOC ZOK Ret Tabl 50 mg 30 Stk&quot;)</span></p><p><b>form</b>: Tablette <span style=\"background: LightGoldenRodYellow; margin: 4px; border: 1px solid khaki\"> (<a href=\"http://fhir.ch/ig/ch-term/3.0.0/CodeSystem-edqm-standardterms.html\">EDQM - Standard Terms</a>#10219000 &quot;Tablet&quot;)</span></p><p><b>amount</b>: 20 Tablet (unit of presentation)<span style=\"background: LightGoldenRodYellow\"> (Details: SNOWMED CT code 732936001 = 'Tablet (unit of presentation)')</span>/1 Package - unit of product usage (qualifier value)<span style=\"background: LightGoldenRodYellow\"> (Details: SNOWMED CT code 1681000175101 = 'Package - unit of product usage')</span></p></blockquote></div>"
      },
      "contained" : [{
        "resourceType" : "Medication",
        "id" : "BelocZok",
        "meta" : {
          "profile" : ["http://fhir.ch/ig/ch-ips/StructureDefinition/ch-ips-medication"]
        },
        "code" : {
          "coding" : [{
            "system" : "urn:oid:2.51.1.1",
            "code" : "7680521101306",
            "display" : "BELOC ZOK Ret Tabl 50 mg 30 Stk"
          }],
          "text" : "BELOC ZOK Ret Tabl 50 mg"
        },
        "form" : {
          "coding" : [{
            "system" : "urn:oid:0.4.0.127.0.16.1.1.2.1",
            "code" : "10219000",
            "display" : "Tablet"
          }],
          "text" : "Tablette"
        },
        "amount" : {
          "numerator" : {
            "value" : 20,
            "unit" : "Tablet (unit of presentation)",
            "system" : "http://snomed.info/sct",
            "code" : "732936001"
          },
          "denominator" : {
            "value" : 1,
            "unit" : "Package - unit of product usage (qualifier value)",
            "system" : "http://snomed.info/sct",
            "code" : "1681000175101"
          }
        }
      }],
      "status" : "active",
      "intent" : "plan",
      "medicationReference" : {
        "reference" : "#BelocZok"
      },
      "subject" : {
        "reference" : "urn:uuid:8383926c-ece1-4384-94bc-b4250b4cb71b",
        "type" : "Patient",
        "display" : "Monika Wegmüller"
      },
      "dosageInstruction" : [{
        "sequence" : 1,
        "patientInstruction" : "Mit einem Glas Wasser einnehmen",
        "timing" : {
          "repeat" : {
            "boundsPeriod" : {
              "start" : "2024-04-26"
            },
            "when" : ["MORN"]
          }
        },
        "route" : {
          "coding" : [{
            "system" : "urn:oid:0.4.0.127.0.16.1.1.2.1",
            "code" : "20053000",
            "display" : "Oral use"
          }],
          "text" : "zum Einnehmen"
        },
        "doseAndRate" : [{
          "doseQuantity" : {
            "value" : 1,
            "unit" : "Tablet (unit of presentation)",
            "system" : "http://snomed.info/sct",
            "code" : "732936001"
          }
        }]
      },
      {
        "sequence" : 2,
        "timing" : {
          "repeat" : {
            "when" : ["EVE"]
          }
        },
        "doseAndRate" : [{
          "doseQuantity" : {
            "value" : 0.5,
            "unit" : "Tablet (unit of presentation)",
            "system" : "http://snomed.info/sct",
            "code" : "732936001"
          }
        }]
      }]
    }
  },
  {
    "fullUrl" : "urn:uuid:27da84cc-526a-4098-afb5-f08c7836d893",
    "resource" : {
      "resourceType" : "AllergyIntolerance",
      "id" : "27da84cc-526a-4098-afb5-f08c7836d893",
      "meta" : {
        "profile" : ["http://fhir.ch/ig/ch-ips/StructureDefinition/ch-ips-allergyintolerance"]
      },
      "text" : {
        "status" : "generated",
        "div" : "<div xmlns=\"http://www.w3.org/1999/xhtml\"><a name=\"AllergyIntolerance_27da84cc-526a-4098-afb5-f08c7836d893\"> </a><p><b>Generated Narrative: AllergyIntolerance</b><a name=\"27da84cc-526a-4098-afb5-f08c7836d893\"> </a><a name=\"hc27da84cc-526a-4098-afb5-f08c7836d893\"> </a></p><div style=\"display: inline-block; background-color: #d9e0e7; padding: 6px; margin: 4px; border: 1px solid #8da1b4; border-radius: 5px; line-height: 60%\"><p style=\"margin-bottom: 0px\">ResourceAllergyIntolerance &quot;27da84cc-526a-4098-afb5-f08c7836d893&quot; </p><p style=\"margin-bottom: 0px\">Profile: <a href=\"StructureDefinition-ch-ips-allergyintolerance.html\">CH IPS AllergyIntolerance</a></p></div><p><b>clinicalStatus</b>: Active <span style=\"background: LightGoldenRodYellow; margin: 4px; border: 1px solid khaki\"> (<a href=\"http://terminology.hl7.org/5.5.0/CodeSystem-allergyintolerance-clinical.html\">AllergyIntolerance Clinical Status Codes</a>#active)</span></p><p><b>verificationStatus</b>: Confirmed <span style=\"background: LightGoldenRodYellow; margin: 4px; border: 1px solid khaki\"> (<a href=\"http://terminology.hl7.org/5.5.0/CodeSystem-allergyintolerance-verification.html\">AllergyIntolerance Verification Status</a>#confirmed)</span></p><p><b>code</b>: No known allergies <span style=\"background: LightGoldenRodYellow; margin: 4px; border: 1px solid khaki\"> (<a href=\"http://hl7.org/fhir/uv/ips/STU1.1/CodeSystem-absent-unknown-uv-ips.html\">Absent and Unknown Data - IPS</a>#no-known-allergies)</span></p><p><b>patient</b>: See on this page: urn:uuid:8383926c-ece1-4384-94bc-b4250b4cb71b: Monika Wegmüller</p><p><b>onset</b>: Absent because : <code>unknown</code></p></div>"
      },
      "clinicalStatus" : {
        "coding" : [{
          "system" : "http://terminology.hl7.org/CodeSystem/allergyintolerance-clinical",
          "code" : "active"
        }]
      },
      "verificationStatus" : {
        "coding" : [{
          "system" : "http://terminology.hl7.org/CodeSystem/allergyintolerance-verification",
          "code" : "confirmed"
        }]
      },
      "code" : {
        "coding" : [{
          "system" : "http://hl7.org/fhir/uv/ips/CodeSystem/absent-unknown-uv-ips",
          "code" : "no-known-allergies",
          "display" : "No known allergies"
        }]
      },
      "patient" : {
        "reference" : "urn:uuid:8383926c-ece1-4384-94bc-b4250b4cb71b",
        "type" : "Patient",
        "display" : "Monika Wegmüller"
      },
      "_onsetDateTime" : {
        "extension" : [{
          "url" : "http://hl7.org/fhir/StructureDefinition/data-absent-reason",
          "valueCode" : "unknown"
        }]
      }
    }
  },
  {
    "fullUrl" : "urn:uuid:506b9fef-be0a-4398-bb7e-7d14c311912f",
    "resource" : {
      "resourceType" : "Condition",
      "id" : "506b9fef-be0a-4398-bb7e-7d14c311912f",
      "meta" : {
        "profile" : ["http://fhir.ch/ig/ch-ips/StructureDefinition/ch-ips-condition"]
      },
      "text" : {
        "status" : "generated",
        "div" : "<div xmlns=\"http://www.w3.org/1999/xhtml\"><a name=\"Condition_506b9fef-be0a-4398-bb7e-7d14c311912f\"> </a><p><b>Generated Narrative: Condition</b><a name=\"506b9fef-be0a-4398-bb7e-7d14c311912f\"> </a><a name=\"hc506b9fef-be0a-4398-bb7e-7d14c311912f\"> </a></p><div style=\"display: inline-block; background-color: #d9e0e7; padding: 6px; margin: 4px; border: 1px solid #8da1b4; border-radius: 5px; line-height: 60%\"><p style=\"margin-bottom: 0px\">ResourceCondition &quot;506b9fef-be0a-4398-bb7e-7d14c311912f&quot; </p><p style=\"margin-bottom: 0px\">Profile: <a href=\"StructureDefinition-ch-ips-condition.html\">CH IPS Condition</a></p></div><p><b>clinicalStatus</b>: Active <span style=\"background: LightGoldenRodYellow; margin: 4px; border: 1px solid khaki\"> (<a href=\"http://terminology.hl7.org/5.5.0/CodeSystem-condition-clinical.html\">Condition Clinical Status Codes</a>#active)</span></p><p><b>verificationStatus</b>: Confirmed <span style=\"background: LightGoldenRodYellow; margin: 4px; border: 1px solid khaki\"> (<a href=\"http://terminology.hl7.org/5.5.0/CodeSystem-condition-ver-status.html\">ConditionVerificationStatus</a>#confirmed)</span></p><p><b>category</b>: Problem List Item <span style=\"background: LightGoldenRodYellow; margin: 4px; border: 1px solid khaki\"> (<a href=\"http://terminology.hl7.org/5.5.0/CodeSystem-condition-category.html\">Condition Category Codes</a>#problem-list-item)</span></p><p><b>severity</b>: Moderate (severity modifier) (qualifier value) <span style=\"background: LightGoldenRodYellow; margin: 4px; border: 1px solid khaki\"> (<a href=\"https://browser.ihtsdotools.org/\">SNOWMED CT</a>#6736007)</span></p><p><b>code</b>: Diabetes mellitus type 2 (disorder) <span style=\"background: LightGoldenRodYellow; margin: 4px; border: 1px solid khaki\"> (<a href=\"https://browser.ihtsdotools.org/\">SNOWMED CT</a>#44054006)</span></p><p><b>subject</b>: See on this page: urn:uuid:8383926c-ece1-4384-94bc-b4250b4cb71b: Monika Wegmüller</p></div>"
      },
      "clinicalStatus" : {
        "coding" : [{
          "system" : "http://terminology.hl7.org/CodeSystem/condition-clinical",
          "code" : "active"
        }]
      },
      "verificationStatus" : {
        "coding" : [{
          "system" : "http://terminology.hl7.org/CodeSystem/condition-ver-status",
          "code" : "confirmed"
        }]
      },
      "category" : [{
        "coding" : [{
          "system" : "http://terminology.hl7.org/CodeSystem/condition-category",
          "code" : "problem-list-item"
        }]
      }],
      "severity" : {
        "coding" : [{
          "system" : "http://snomed.info/sct",
          "code" : "6736007",
          "display" : "Moderate (severity modifier) (qualifier value)"
        }]
      },
      "code" : {
        "coding" : [{
          "system" : "http://snomed.info/sct",
          "code" : "44054006",
          "display" : "Diabetes mellitus type 2 (disorder)"
        }]
      },
      "subject" : {
        "reference" : "urn:uuid:8383926c-ece1-4384-94bc-b4250b4cb71b",
        "type" : "Patient",
        "display" : "Monika Wegmüller"
      }
    }
  },
  {
    "fullUrl" : "urn:uuid:8a79d459-0d2f-460b-87fd-a7de12d49871",
    "resource" : {
      "resourceType" : "Condition",
      "id" : "8a79d459-0d2f-460b-87fd-a7de12d49871",
      "meta" : {
        "profile" : ["http://fhir.ch/ig/ch-ips/StructureDefinition/ch-ips-condition"]
      },
      "text" : {
        "status" : "generated",
        "div" : "<div xmlns=\"http://www.w3.org/1999/xhtml\"><a name=\"Condition_8a79d459-0d2f-460b-87fd-a7de12d49871\"> </a><p><b>Generated Narrative: Condition</b><a name=\"8a79d459-0d2f-460b-87fd-a7de12d49871\"> </a><a name=\"hc8a79d459-0d2f-460b-87fd-a7de12d49871\"> </a></p><div style=\"display: inline-block; background-color: #d9e0e7; padding: 6px; margin: 4px; border: 1px solid #8da1b4; border-radius: 5px; line-height: 60%\"><p style=\"margin-bottom: 0px\">ResourceCondition &quot;8a79d459-0d2f-460b-87fd-a7de12d49871&quot; </p><p style=\"margin-bottom: 0px\">Profile: <a href=\"StructureDefinition-ch-ips-condition.html\">CH IPS Condition</a></p></div><p><b>clinicalStatus</b>: Active <span style=\"background: LightGoldenRodYellow; margin: 4px; border: 1px solid khaki\"> (<a href=\"http://terminology.hl7.org/5.5.0/CodeSystem-condition-clinical.html\">Condition Clinical Status Codes</a>#active)</span></p><p><b>verificationStatus</b>: Confirmed <span style=\"background: LightGoldenRodYellow; margin: 4px; border: 1px solid khaki\"> (<a href=\"http://terminology.hl7.org/5.5.0/CodeSystem-condition-ver-status.html\">ConditionVerificationStatus</a>#confirmed)</span></p><p><b>category</b>: Problem List Item <span style=\"background: LightGoldenRodYellow; margin: 4px; border: 1px solid khaki\"> (<a href=\"http://terminology.hl7.org/5.5.0/CodeSystem-condition-category.html\">Condition Category Codes</a>#problem-list-item)</span></p><p><b>severity</b>: Moderate (severity modifier) (qualifier value) <span style=\"background: LightGoldenRodYellow; margin: 4px; border: 1px solid khaki\"> (<a href=\"https://browser.ihtsdotools.org/\">SNOWMED CT</a>#6736007)</span></p><p><b>code</b>: Hypertensive disorder, systemic arterial (disorder) <span style=\"background: LightGoldenRodYellow; margin: 4px; border: 1px solid khaki\"> (<a href=\"https://browser.ihtsdotools.org/\">SNOWMED CT</a>#38341003)</span></p><p><b>subject</b>: See on this page: urn:uuid:8383926c-ece1-4384-94bc-b4250b4cb71b: Monika Wegmüller</p><p><b>onset</b>: 2024-04-26</p></div>"
      },
      "clinicalStatus" : {
        "coding" : [{
          "system" : "http://terminology.hl7.org/CodeSystem/condition-clinical",
          "code" : "active"
        }]
      },
      "verificationStatus" : {
        "coding" : [{
          "system" : "http://terminology.hl7.org/CodeSystem/condition-ver-status",
          "code" : "confirmed"
        }]
      },
      "category" : [{
        "coding" : [{
          "system" : "http://terminology.hl7.org/CodeSystem/condition-category",
          "code" : "problem-list-item"
        }]
      }],
      "severity" : {
        "coding" : [{
          "system" : "http://snomed.info/sct",
          "code" : "6736007",
          "display" : "Moderate (severity modifier) (qualifier value)"
        }]
      },
      "code" : {
        "coding" : [{
          "system" : "http://snomed.info/sct",
          "code" : "38341003",
          "display" : "Hypertensive disorder, systemic arterial (disorder)"
        }]
      },
      "subject" : {
        "reference" : "urn:uuid:8383926c-ece1-4384-94bc-b4250b4cb71b",
        "type" : "Patient",
        "display" : "Monika Wegmüller"
      },
      "onsetDateTime" : "2024-04-26"
    }
  },
  {
    "fullUrl" : "urn:uuid:b5434748-47e9-4dab-a47c-6d0e5dff1fe9",
    "resource" : {
      "resourceType" : "Procedure",
      "id" : "b5434748-47e9-4dab-a47c-6d0e5dff1fe9",
      "meta" : {
        "profile" : ["http://hl7.org/fhir/uv/ips/StructureDefinition/Procedure-uv-ips"]
      },
      "text" : {
        "status" : "generated",
        "div" : "<div xmlns=\"http://www.w3.org/1999/xhtml\"><a name=\"Procedure_b5434748-47e9-4dab-a47c-6d0e5dff1fe9\"> </a><p><b>Generated Narrative: Procedure</b><a name=\"b5434748-47e9-4dab-a47c-6d0e5dff1fe9\"> </a><a name=\"hcb5434748-47e9-4dab-a47c-6d0e5dff1fe9\"> </a></p><div style=\"display: inline-block; background-color: #d9e0e7; padding: 6px; margin: 4px; border: 1px solid #8da1b4; border-radius: 5px; line-height: 60%\"><p style=\"margin-bottom: 0px\">ResourceProcedure &quot;b5434748-47e9-4dab-a47c-6d0e5dff1fe9&quot; </p><p style=\"margin-bottom: 0px\">Profile: <a href=\"http://hl7.org/fhir/uv/ips/STU1.1/StructureDefinition-Procedure-uv-ips.html\">Procedure (IPS)</a></p></div><p><b>status</b>: completed</p><p><b>code</b>: Laparoscopic appendectomy <span style=\"background: LightGoldenRodYellow; margin: 4px; border: 1px solid khaki\"> (<a href=\"https://browser.ihtsdotools.org/\">SNOWMED CT</a>#6025007)</span></p><p><b>subject</b>: See on this page: urn:uuid:8383926c-ece1-4384-94bc-b4250b4cb71b: Monika Wegmüller</p><p><b>performed</b>: 2000-09-27</p></div>"
      },
      "status" : "completed",
      "code" : {
        "coding" : [{
          "system" : "http://snomed.info/sct",
          "code" : "6025007",
          "display" : "Laparoscopic appendectomy"
        }]
      },
      "subject" : {
        "reference" : "urn:uuid:8383926c-ece1-4384-94bc-b4250b4cb71b",
        "type" : "Patient",
        "display" : "Monika Wegmüller"
      },
      "performedDateTime" : "2000-09-27"
    }
  },
  {
    "fullUrl" : "urn:uuid:19efd704-3461-4120-b3cf-a76ae046e150",
    "resource" : {
      "resourceType" : "Immunization",
      "id" : "19efd704-3461-4120-b3cf-a76ae046e150",
      "meta" : {
        "profile" : ["http://fhir.ch/ig/ch-ips/StructureDefinition/ch-ips-immunization"]
      },
      "text" : {
        "status" : "generated",
        "div" : "<div xmlns=\"http://www.w3.org/1999/xhtml\"><a name=\"Immunization_19efd704-3461-4120-b3cf-a76ae046e150\"> </a><p><b>Generated Narrative: Immunization</b><a name=\"19efd704-3461-4120-b3cf-a76ae046e150\"> </a><a name=\"hc19efd704-3461-4120-b3cf-a76ae046e150\"> </a></p><div style=\"display: inline-block; background-color: #d9e0e7; padding: 6px; margin: 4px; border: 1px solid #8da1b4; border-radius: 5px; line-height: 60%\"><p style=\"margin-bottom: 0px\">ResourceImmunization &quot;19efd704-3461-4120-b3cf-a76ae046e150&quot; </p><p style=\"margin-bottom: 0px\">Profile: <a href=\"StructureDefinition-ch-ips-immunization.html\">CH IPS Immunization</a></p></div><p><b>status</b>: completed</p><p><b>vaccineCode</b>: Boostrix <span style=\"background: LightGoldenRodYellow; margin: 4px; border: 1px solid khaki\"> (<a href=\"http://fhir.ch/ig/ch-term/3.0.0/CodeSystem-ch-vacd-swissmedic-cs.html\">CH VACD Swissmedic Authorized Vaccines</a>#637; <a href=\"https://browser.ihtsdotools.org/\">SNOWMED CT</a>#871875004 &quot;Vaccine product containing only Bordetella pertussis and Clostridium tetani and Corynebacterium diphtheriae antigens (medicinal product)&quot;)</span></p><p><b>patient</b>: See on this page: urn:uuid:8383926c-ece1-4384-94bc-b4250b4cb71b: Monika Wegmüller</p><p><b>occurrence</b>: 2017-09-15 09:12:56+0200</p><p><b>recorded</b>: 2017-09-15 09:12:56+0200</p><p><b>lotNumber</b>: 12-34244</p><p><b>route</b>: Intramuscular use <span style=\"background: LightGoldenRodYellow; margin: 4px; border: 1px solid khaki\"> (<a href=\"http://fhir.ch/ig/ch-term/3.0.0/CodeSystem-edqm-standardterms.html\">EDQM - Standard Terms</a>#20035000)</span></p><h3>ProtocolApplieds</h3><table class=\"grid\"><tr><td style=\"display: none\">-</td><td><b>TargetDisease</b></td><td><b>DoseNumber[x]</b></td></tr><tr><td style=\"display: none\">*</td><td>Diphtheria caused by Corynebacterium diphtheriae (disorder) <span style=\"background: LightGoldenRodYellow; margin: 4px; border: 1px solid khaki\"> (<a href=\"https://browser.ihtsdotools.org/\">SNOWMED CT</a>#397430003)</span>, Tetanus (disorder) <span style=\"background: LightGoldenRodYellow; margin: 4px; border: 1px solid khaki\"> (<a href=\"https://browser.ihtsdotools.org/\">SNOWMED CT</a>#76902006)</span>, Pertussis (disorder) <span style=\"background: LightGoldenRodYellow; margin: 4px; border: 1px solid khaki\"> (<a href=\"https://browser.ihtsdotools.org/\">SNOWMED CT</a>#27836007)</span></td><td>1</td></tr></table></div>"
      },
      "status" : "completed",
      "vaccineCode" : {
        "coding" : [{
          "system" : "http://fhir.ch/ig/ch-vacd/CodeSystem/ch-vacd-swissmedic-cs",
          "code" : "637",
          "display" : "Boostrix"
        },
        {
          "system" : "http://snomed.info/sct",
          "code" : "871875004",
          "display" : "Vaccine product containing only Bordetella pertussis and Clostridium tetani and Corynebacterium diphtheriae antigens (medicinal product)"
        }]
      },
      "patient" : {
        "reference" : "urn:uuid:8383926c-ece1-4384-94bc-b4250b4cb71b",
        "type" : "Patient",
        "display" : "Monika Wegmüller"
      },
      "occurrenceDateTime" : "2017-09-15T09:12:56+02:00",
      "recorded" : "2017-09-15T09:12:56+02:00",
      "lotNumber" : "12-34244",
      "route" : {
        "coding" : [{
          "system" : "urn:oid:0.4.0.127.0.16.1.1.2.1",
          "code" : "20035000",
          "display" : "Intramuscular use"
        }]
      },
      "protocolApplied" : [{
        "targetDisease" : [{
          "coding" : [{
            "system" : "http://snomed.info/sct",
            "code" : "397430003",
            "display" : "Diphtheria caused by Corynebacterium diphtheriae (disorder)"
          }]
        },
        {
          "coding" : [{
            "system" : "http://snomed.info/sct",
            "code" : "76902006",
            "display" : "Tetanus (disorder)"
          }]
        },
        {
          "coding" : [{
            "system" : "http://snomed.info/sct",
            "code" : "27836007",
            "display" : "Pertussis (disorder)"
          }]
        }],
        "doseNumberPositiveInt" : 1
      }]
    }
  },
  {
    "fullUrl" : "urn:uuid:db5ef7b0-e946-4260-a604-128b8887a41b",
    "resource" : {
      "resourceType" : "Observation",
      "id" : "db5ef7b0-e946-4260-a604-128b8887a41b",
      "meta" : {
        "profile" : ["http://hl7.org/fhir/StructureDefinition/bodyweight"]
      },
      "text" : {
        "status" : "generated",
        "div" : "<div xmlns=\"http://www.w3.org/1999/xhtml\"><a name=\"Observation_db5ef7b0-e946-4260-a604-128b8887a41b\"> </a><p><b>Generated Narrative: Observation</b><a name=\"db5ef7b0-e946-4260-a604-128b8887a41b\"> </a><a name=\"hcdb5ef7b0-e946-4260-a604-128b8887a41b\"> </a></p><div style=\"display: inline-block; background-color: #d9e0e7; padding: 6px; margin: 4px; border: 1px solid #8da1b4; border-radius: 5px; line-height: 60%\"><p style=\"margin-bottom: 0px\">ResourceObservation &quot;db5ef7b0-e946-4260-a604-128b8887a41b&quot; </p><p style=\"margin-bottom: 0px\">Profile: <a href=\"http://hl7.org/fhir/R4/bodyweight.html\">Observation Body Weight Profile</a></p></div><p><b>status</b>: final</p><p><b>category</b>: Vital Signs <span style=\"background: LightGoldenRodYellow; margin: 4px; border: 1px solid khaki\"> (<a href=\"http://terminology.hl7.org/5.5.0/CodeSystem-observation-category.html\">Observation Category Codes</a>#vital-signs)</span></p><p><b>code</b>: Body weight <span style=\"background: LightGoldenRodYellow; margin: 4px; border: 1px solid khaki\"> (<a href=\"https://loinc.org/\">LOINC</a>#29463-7)</span></p><p><b>subject</b>: See on this page: urn:uuid:8383926c-ece1-4384-94bc-b4250b4cb71b: Monika Wegmüller</p><p><b>effective</b>: 2024-04-27 14:05:00+0200</p><p><b>performer</b>: See on this page: urn:uuid:a27376ce-fa12-458d-a2dc-f90e63de126b: Spital</p><p><b>value</b>: 65 kilogram<span style=\"background: LightGoldenRodYellow\"> (Details: UCUM code kg = 'kg')</span></p></div>"
      },
      "status" : "final",
      "category" : [{
        "coding" : [{
          "system" : "http://terminology.hl7.org/CodeSystem/observation-category",
          "code" : "vital-signs",
          "display" : "Vital Signs"
        }]
      }],
      "code" : {
        "coding" : [{
          "system" : "http://loinc.org",
          "code" : "29463-7",
          "display" : "Body weight"
        }]
      },
      "subject" : {
        "reference" : "urn:uuid:8383926c-ece1-4384-94bc-b4250b4cb71b",
        "type" : "Patient",
        "display" : "Monika Wegmüller"
      },
      "effectiveDateTime" : "2024-04-27T14:05:00+02:00",
      "performer" : [{
        "reference" : "urn:uuid:a27376ce-fa12-458d-a2dc-f90e63de126b",
        "type" : "Organization",
        "display" : "Spital"
      }],
      "valueQuantity" : {
        "value" : 65,
        "unit" : "kilogram",
        "system" : "http://unitsofmeasure.org",
        "code" : "kg"
      }
    }
  },
  {
    "fullUrl" : "urn:uuid:07b2e450-a62e-4734-98bf-51462f008e0f",
    "resource" : {
      "resourceType" : "Observation",
      "id" : "07b2e450-a62e-4734-98bf-51462f008e0f",
      "meta" : {
        "profile" : ["http://hl7.org/fhir/StructureDefinition/bodyheight"]
      },
      "text" : {
        "status" : "generated",
        "div" : "<div xmlns=\"http://www.w3.org/1999/xhtml\"><a name=\"Observation_07b2e450-a62e-4734-98bf-51462f008e0f\"> </a><p><b>Generated Narrative: Observation</b><a name=\"07b2e450-a62e-4734-98bf-51462f008e0f\"> </a><a name=\"hc07b2e450-a62e-4734-98bf-51462f008e0f\"> </a></p><div style=\"display: inline-block; background-color: #d9e0e7; padding: 6px; margin: 4px; border: 1px solid #8da1b4; border-radius: 5px; line-height: 60%\"><p style=\"margin-bottom: 0px\">ResourceObservation &quot;07b2e450-a62e-4734-98bf-51462f008e0f&quot; </p><p style=\"margin-bottom: 0px\">Profile: <a href=\"http://hl7.org/fhir/R4/bodyheight.html\">Observation Body Height Profile</a></p></div><p><b>status</b>: final</p><p><b>category</b>: Vital Signs <span style=\"background: LightGoldenRodYellow; margin: 4px; border: 1px solid khaki\"> (<a href=\"http://terminology.hl7.org/5.5.0/CodeSystem-observation-category.html\">Observation Category Codes</a>#vital-signs)</span></p><p><b>code</b>: Body height <span style=\"background: LightGoldenRodYellow; margin: 4px; border: 1px solid khaki\"> (<a href=\"https://loinc.org/\">LOINC</a>#8302-2)</span></p><p><b>subject</b>: See on this page: urn:uuid:8383926c-ece1-4384-94bc-b4250b4cb71b: Monika Wegmüller</p><p><b>effective</b>: 2024-04-27 14:05:00+0200</p><p><b>performer</b>: See on this page: urn:uuid:a27376ce-fa12-458d-a2dc-f90e63de126b: Spital</p><p><b>value</b>: 170 centimeter<span style=\"background: LightGoldenRodYellow\"> (Details: UCUM code cm = 'cm')</span></p></div>"
      },
      "status" : "final",
      "category" : [{
        "coding" : [{
          "system" : "http://terminology.hl7.org/CodeSystem/observation-category",
          "code" : "vital-signs",
          "display" : "Vital Signs"
        }]
      }],
      "code" : {
        "coding" : [{
          "system" : "http://loinc.org",
          "code" : "8302-2",
          "display" : "Body height"
        }]
      },
      "subject" : {
        "reference" : "urn:uuid:8383926c-ece1-4384-94bc-b4250b4cb71b",
        "type" : "Patient",
        "display" : "Monika Wegmüller"
      },
      "effectiveDateTime" : "2024-04-27T14:05:00+02:00",
      "performer" : [{
        "reference" : "urn:uuid:a27376ce-fa12-458d-a2dc-f90e63de126b",
        "type" : "Organization",
        "display" : "Spital"
      }],
      "valueQuantity" : {
        "value" : 170,
        "unit" : "centimeter",
        "system" : "http://unitsofmeasure.org",
        "code" : "cm"
      }
    }
  },
  {
    "fullUrl" : "urn:uuid:93fe0d81-a547-494e-941c-113506108b76",
    "resource" : {
      "resourceType" : "Observation",
      "id" : "93fe0d81-a547-494e-941c-113506108b76",
      "meta" : {
        "profile" : ["http://hl7.org/fhir/uv/ips/StructureDefinition/Observation-tobaccouse-uv-ips"]
      },
      "text" : {
        "status" : "generated",
        "div" : "<div xmlns=\"http://www.w3.org/1999/xhtml\"><a name=\"Observation_93fe0d81-a547-494e-941c-113506108b76\"> </a><p><b>Generated Narrative: Observation</b><a name=\"93fe0d81-a547-494e-941c-113506108b76\"> </a><a name=\"hc93fe0d81-a547-494e-941c-113506108b76\"> </a></p><div style=\"display: inline-block; background-color: #d9e0e7; padding: 6px; margin: 4px; border: 1px solid #8da1b4; border-radius: 5px; line-height: 60%\"><p style=\"margin-bottom: 0px\">ResourceObservation &quot;93fe0d81-a547-494e-941c-113506108b76&quot; </p><p style=\"margin-bottom: 0px\">Profile: <a href=\"http://hl7.org/fhir/uv/ips/STU1.1/StructureDefinition-Observation-tobaccouse-uv-ips.html\">Observation - SH: tobacco use</a></p></div><p><b>status</b>: final</p><p><b>code</b>: Tobacco smoking status <span style=\"background: LightGoldenRodYellow; margin: 4px; border: 1px solid khaki\"> (<a href=\"https://loinc.org/\">LOINC</a>#72166-2)</span></p><p><b>subject</b>: See on this page: urn:uuid:8383926c-ece1-4384-94bc-b4250b4cb71b: Monika Wegmüller</p><p><b>effective</b>: 2024-04-26</p><p><b>performer</b>: See on this page: urn:uuid:a27376ce-fa12-458d-a2dc-f90e63de126b: Spital</p><p><b>value</b>: Former smoker <span style=\"background: LightGoldenRodYellow; margin: 4px; border: 1px solid khaki\"> (<a href=\"https://loinc.org/\">LOINC</a>#LA15920-4)</span></p></div>"
      },
      "status" : "final",
      "code" : {
        "coding" : [{
          "system" : "http://loinc.org",
          "code" : "72166-2",
          "display" : "Tobacco smoking status"
        }]
      },
      "subject" : {
        "reference" : "urn:uuid:8383926c-ece1-4384-94bc-b4250b4cb71b",
        "type" : "Patient",
        "display" : "Monika Wegmüller"
      },
      "effectiveDateTime" : "2024-04-26",
      "performer" : [{
        "reference" : "urn:uuid:a27376ce-fa12-458d-a2dc-f90e63de126b",
        "type" : "Organization",
        "display" : "Spital"
      }],
      "valueCodeableConcept" : {
        "coding" : [{
          "system" : "http://loinc.org",
          "code" : "LA15920-4",
          "display" : "Former smoker"
        }]
      }
    }
  }]
}