{
  "resourceType" : "Bundle",
  "id" : "c97d5d89-4467-4c1e-9954-9d1e1d1d46e2",
  "meta" : {
    "profile" : ["http://fhir.ch/ig/ch-epl/StructureDefinition/ch-idmp-bundle"]
  },
  "type" : "collection",
  "entry" : [{
    "fullUrl" : "http://example.org/MedicinalProductDefinition/Triogen-250mg-Capsule",
    "resource" : {
      "resourceType" : "MedicinalProductDefinition",
      "id" : "Triogen-250mg-Capsule",
      "meta" : {
        "profile" : ["http://fhir.ch/ig/ch-epl/StructureDefinition/ch-idmp-medicinalproductdefinition"]
      },
      "text" : {
        "status" : "extensions",
        "div" : "<div xmlns=\"http://www.w3.org/1999/xhtml\"><a name=\"MedicinalProductDefinition_Triogen-250mg-Capsule\"> </a><p class=\"res-header-id\"><b>Generated Narrative: MedicinalProductDefinition Triogen-250mg-Capsule</b></p><a name=\"Triogen-250mg-Capsule\"> </a><a name=\"hcTriogen-250mg-Capsule\"> </a><a name=\"Triogen-250mg-Capsule-en-US\"> </a><div style=\"display: inline-block; background-color: #d9e0e7; padding: 6px; margin: 4px; border: 1px solid #8da1b4; border-radius: 5px; line-height: 60%\"><p style=\"margin-bottom: 0px\"/><p style=\"margin-bottom: 0px\">Profile: <a href=\"StructureDefinition-ch-idmp-medicinalproductdefinition.html\">IDMP MedicinalProductDefinition</a></p></div><p><b>CH - SMC Authorized Dose Form</b>: <span title=\"Codes:{http://standardterms.edqm.eu 10210000}\">Capsule, hard</span></p><p><b>CH - EPL Full Limitation Text</b>: TRIOGEN wird verg端tet zur Behandlung der Kupferspeicherkrankheit (Morbus Wilson) bei Patienten, die eine Behandlung mit D-Penicillamin nicht vertragen. Die Behandlung muss von Gastroenterologen oder Hepatologen mit Erfahrung bei der Behandlung von Patienten mit Morbus Wilson initiiert und 端berwacht werden.</p><p><b>identifier</b>: <code>http://SMC.ch/ig/idmp/NamingSystem/IDSystem-ch-MPID</code>/CH-7601001403062-6743101</p><p><b>domain</b>: <span title=\"Codes:{http://spor.ema.europa.eu/v1/lists/100000000004 100000000012}\">Human</span></p><p><b>indication</b>: </p><div><p>Zur Behandlung der Kupferspeicherkrankheit (Morbus Wilson) bei Patienten, die eine Behandlung mit D-Penicillamin nicht vertragen.</p>\n</div><p><b>legalStatusOfSupply</b>: <span title=\"Codes:{http://fhir.ch/ig/ch-epl/CodeSystem/ch-SMC-legal-status-of-supply 756005022003}\">Medicinal product subject to medical or veterinary prescription (B)</span></p><p><b>additionalMonitoringIndicator</b>: <span title=\"Codes:{http://fhir.ch/ig/ch-epl/CodeSystem/ch-SMC-additional-monitoring-indicator 756005001003}\">No Warning</span></p><p><b>pediatricUseIndicator</b>: <span title=\"Codes:{http://fhir.ch/ig/ch-epl/CodeSystem/ch-SMC-pediatric-use-indicator 756005003001}\">Authorised for the treatment in children</span></p><p><b>classification</b>: <span title=\"Codes:{http://www.whocc.no/atc A16AX12}\">trientine</span>, <span title=\"Codes:{http://fhir.ch/ig/ch-epl/CodeSystem/ch-SMC-authorisation-category 756005021001}\">NA KAS art. 12 para. 5 TPLO</span>, <span title=\"Codes:{http://fhir.ch/ig/ch-epl/CodeSystem/ch-SMC-therapeuticproductcode 756005004001}\">Synthetic</span>, <span title=\"Codes:{http://fhir.ch/ig/ch-epl/CodeSystem/ch-epl-foph-product-type 756001003002}\">Originator product</span></p><p><b>attachedDocument</b>: </p><ul><li><a href=\"DocumentReference-DocRef-FI-Triogen.html\">DocumentReference: identifier = http://SMC.ch/ig/idmp/NamingSystem/IDSystem-ch-AttachmentNumber#123456789-initial submission-Example-qrs-123; status = current; type = Fachinformation; date = 2019-12-01 00:00:00+0000</a></li><li><a href=\"DocumentReference-DocRef-PI-Triogen.html\">DocumentReference: identifier = http://SMC.ch/ig/idmp/NamingSystem/IDSystem-ch-AttachmentNumber#123456789-initial submission-Example-qrs-321; status = current; type = Patienteninformation; date = 2019-12-01 00:00:00+0000</a></li></ul><blockquote><p><b>name</b></p><p><b>productName</b>: Triogen 250 mg, Kapseln</p><p><b>type</b>: <span title=\"Codes:{http://fhir.ch/ig/ch-epl/CodeSystem/ch-medicinal-product-name-type SMC}\">Zugelassener Arzneimittelname</span></p><h3>Usages</h3><table class=\"grid\"><tr><td style=\"display: none\">-</td><td><b>Country</b></td><td><b>Language</b></td></tr><tr><td style=\"display: none\">*</td><td><span title=\"Codes:{urn:iso:std:iso:3166 CH}\">Switzerland</span></td><td><span title=\"Codes:{urn:ietf:bcp:47 de-CH}\">German (Switzerland)</span></td></tr></table></blockquote></div>"
      },
      "extension" : [{
        "url" : "http://fhir.ch/ig/ch-epl/StructureDefinition/authorizedDoseForm",
        "valueCodeableConcept" : {
          "coding" : [{
            "system" : "http://standardterms.edqm.eu",
            "code" : "10210000",
            "display" : "Capsule, hard"
          }]
        }
      },
      {
        "url" : "http://fhir.ch/ig/ch-epl/StructureDefinition/fullLimitationText",
        "valueString" : "TRIOGEN wird verg端tet zur Behandlung der Kupferspeicherkrankheit (Morbus Wilson) bei Patienten, die eine Behandlung mit D-Penicillamin nicht vertragen. Die Behandlung muss von Gastroenterologen oder Hepatologen mit Erfahrung bei der Behandlung von Patienten mit Morbus Wilson initiiert und 端berwacht werden."
      }],
      "identifier" : [{
        "system" : "http://SMC.ch/ig/idmp/NamingSystem/IDSystem-ch-MPID",
        "value" : "CH-7601001403062-6743101"
      }],
      "domain" : {
        "coding" : [{
          "system" : "http://spor.ema.europa.eu/v1/lists/100000000004",
          "code" : "100000000012",
          "display" : "Human"
        }]
      },
      "indication" : "Zur Behandlung der Kupferspeicherkrankheit (Morbus Wilson) bei Patienten, die eine Behandlung mit D-Penicillamin nicht vertragen.",
      "legalStatusOfSupply" : {
        "coding" : [{
          "system" : "http://fhir.ch/ig/ch-epl/CodeSystem/ch-SMC-legal-status-of-supply",
          "code" : "756005022003",
          "display" : "Medicinal product subject to medical or veterinary prescription (B)"
        }]
      },
      "additionalMonitoringIndicator" : {
        "coding" : [{
          "system" : "http://fhir.ch/ig/ch-epl/CodeSystem/ch-SMC-additional-monitoring-indicator",
          "code" : "756005001003",
          "display" : "No Warning"
        }]
      },
      "pediatricUseIndicator" : {
        "coding" : [{
          "system" : "http://fhir.ch/ig/ch-epl/CodeSystem/ch-SMC-pediatric-use-indicator",
          "code" : "756005003001",
          "display" : "Authorised for the treatment in children"
        }]
      },
      "classification" : [{
        "coding" : [{
          "system" : "http://www.whocc.no/atc",
          "code" : "A16AX12"
        }]
      },
      {
        "coding" : [{
          "system" : "http://fhir.ch/ig/ch-epl/CodeSystem/ch-SMC-authorisation-category",
          "code" : "756005021001",
          "display" : "NA KAS art. 12 para. 5 TPLO"
        }]
      },
      {
        "coding" : [{
          "system" : "http://fhir.ch/ig/ch-epl/CodeSystem/ch-SMC-therapeuticproductcode",
          "code" : "756005004001",
          "display" : "Synthetic"
        }]
      },
      {
        "coding" : [{
          "system" : "http://fhir.ch/ig/ch-epl/CodeSystem/ch-epl-foph-product-type",
          "code" : "756001003002",
          "display" : "Originator product"
        }]
      }],
      "attachedDocument" : [{
        "reference" : "DocumentReference/DocRef-FI-Triogen"
      },
      {
        "reference" : "DocumentReference/DocRef-PI-Triogen"
      }],
      "name" : [{
        "productName" : "Triogen 250 mg, Kapseln",
        "type" : {
          "coding" : [{
            "system" : "http://fhir.ch/ig/ch-epl/CodeSystem/ch-medicinal-product-name-type",
            "code" : "SMC",
            "display" : "Zugelassener Arzneimittelname"
          }]
        },
        "usage" : [{
          "country" : {
            "coding" : [{
              "system" : "urn:iso:std:iso:3166",
              "code" : "CH",
              "display" : "Switzerland"
            }]
          },
          "language" : {
            "coding" : [{
              "system" : "urn:ietf:bcp:47",
              "code" : "de-CH",
              "display" : "German (Switzerland)"
            }]
          }
        }]
      }]
    }
  },
  {
    "fullUrl" : "http://example.org/DocumentReference/DocRef-FI-Triogen",
    "resource" : {
      "resourceType" : "DocumentReference",
      "id" : "DocRef-FI-Triogen",
      "meta" : {
        "profile" : ["http://fhir.ch/ig/ch-epl/StructureDefinition/ch-idmp-documentreference"]
      },
      "language" : "de-CH",
      "text" : {
        "status" : "generated",
        "div" : "<div xmlns=\"http://www.w3.org/1999/xhtml\" xml:lang=\"de-CH\" lang=\"de-CH\"><a name=\"DocumentReference_DocRef-FI-Triogen\"> </a><p class=\"res-header-id\"><b>Generated Narrative: DocumentReference DocRef-FI-Triogen</b></p><a name=\"DocRef-FI-Triogen\"> </a><a name=\"hcDocRef-FI-Triogen\"> </a><a name=\"DocRef-FI-Triogen-en-US\"> </a><div style=\"display: inline-block; background-color: #d9e0e7; padding: 6px; margin: 4px; border: 1px solid #8da1b4; border-radius: 5px; line-height: 60%\"><p style=\"margin-bottom: 0px\">Language: de-CH</p><p style=\"margin-bottom: 0px\">Profile: <a href=\"StructureDefinition-ch-idmp-documentreference.html\">CH IDMP DocumentReference</a></p></div><p><b>identifier</b>: <code>http://SMC.ch/ig/idmp/NamingSystem/IDSystem-ch-AttachmentNumber</code>/123456789-initial submission-Example-qrs-123</p><p><b>status</b>: Current</p><p><b>type</b>: <span title=\"Codes:{http://fhir.ch/ig/ch-epl/CodeSystem/ch-SMC-attached-document-type 756005007001}\">Fachinformation</span></p><p><b>date</b>: 2019-12-01 00:00:00+0000</p><blockquote><p><b>content</b></p><h3>Attachments</h3><table class=\"grid\"><tr><td style=\"display: none\">-</td><td><b>Url</b></td></tr><tr><td style=\"display: none\">*</td><td><a href=\"https://swissmedicinfo.ch/showTextAccepted.aspx?textType=FI&amp;lang=DE&amp;authNr=67431&amp;supportMultipleResults=1\">https://swissmedicinfo.ch/showTextAccepted.aspx?textType=FI&amp;lang=DE&amp;authNr=67431&amp;supportMultipleResults=1</a></td></tr></table></blockquote></div>"
      },
      "identifier" : [{
        "system" : "http://SMC.ch/ig/idmp/NamingSystem/IDSystem-ch-AttachmentNumber",
        "value" : "123456789-initial submission-Example-qrs-123"
      }],
      "status" : "current",
      "type" : {
        "coding" : [{
          "system" : "http://fhir.ch/ig/ch-epl/CodeSystem/ch-SMC-attached-document-type",
          "code" : "756005007001",
          "display" : "Fachinformation"
        }]
      },
      "date" : "2019-12-01T00:00:00Z",
      "content" : [{
        "attachment" : {
          "url" : "https://swissmedicinfo.ch/showTextAccepted.aspx?textType=FI&lang=DE&authNr=67431&supportMultipleResults=1"
        }
      }]
    }
  },
  {
    "fullUrl" : "http://example.org/DocumentReference/DocRef-PI-Triogen",
    "resource" : {
      "resourceType" : "DocumentReference",
      "id" : "DocRef-PI-Triogen",
      "meta" : {
        "profile" : ["http://fhir.ch/ig/ch-epl/StructureDefinition/ch-idmp-documentreference"]
      },
      "language" : "de-CH",
      "text" : {
        "status" : "generated",
        "div" : "<div xmlns=\"http://www.w3.org/1999/xhtml\" xml:lang=\"de-CH\" lang=\"de-CH\"><a name=\"DocumentReference_DocRef-PI-Triogen\"> </a><p class=\"res-header-id\"><b>Generated Narrative: DocumentReference DocRef-PI-Triogen</b></p><a name=\"DocRef-PI-Triogen\"> </a><a name=\"hcDocRef-PI-Triogen\"> </a><a name=\"DocRef-PI-Triogen-en-US\"> </a><div style=\"display: inline-block; background-color: #d9e0e7; padding: 6px; margin: 4px; border: 1px solid #8da1b4; border-radius: 5px; line-height: 60%\"><p style=\"margin-bottom: 0px\">Language: de-CH</p><p style=\"margin-bottom: 0px\">Profile: <a href=\"StructureDefinition-ch-idmp-documentreference.html\">CH IDMP DocumentReference</a></p></div><p><b>identifier</b>: <code>http://SMC.ch/ig/idmp/NamingSystem/IDSystem-ch-AttachmentNumber</code>/123456789-initial submission-Example-qrs-321</p><p><b>status</b>: Current</p><p><b>type</b>: <span title=\"Codes:{http://fhir.ch/ig/ch-epl/CodeSystem/ch-SMC-attached-document-type 756005007002}\">Patienteninformation</span></p><p><b>date</b>: 2019-12-01 00:00:00+0000</p><blockquote><p><b>content</b></p><h3>Attachments</h3><table class=\"grid\"><tr><td style=\"display: none\">-</td><td><b>Url</b></td></tr><tr><td style=\"display: none\">*</td><td><a href=\"https://swissmedicinfo.ch/showTextAccepted.aspx?textType=PI&amp;lang=DE&amp;authNr=67431&amp;supportMultipleResults=1\">https://swissmedicinfo.ch/showTextAccepted.aspx?textType=PI&amp;lang=DE&amp;authNr=67431&amp;supportMultipleResults=1</a></td></tr></table></blockquote></div>"
      },
      "identifier" : [{
        "system" : "http://SMC.ch/ig/idmp/NamingSystem/IDSystem-ch-AttachmentNumber",
        "value" : "123456789-initial submission-Example-qrs-321"
      }],
      "status" : "current",
      "type" : {
        "coding" : [{
          "system" : "http://fhir.ch/ig/ch-epl/CodeSystem/ch-SMC-attached-document-type",
          "code" : "756005007002",
          "display" : "Patienteninformation"
        }]
      },
      "date" : "2019-12-01T00:00:00Z",
      "content" : [{
        "attachment" : {
          "url" : "https://swissmedicinfo.ch/showTextAccepted.aspx?textType=PI&lang=DE&authNr=67431&supportMultipleResults=1"
        }
      }]
    }
  },
  {
    "fullUrl" : "http://example.org/RegulatedAuthorisation/MA-6743101",
    "resource" : {
      "resourceType" : "RegulatedAuthorization",
      "id" : "MA-6743101",
      "meta" : {
        "profile" : ["http://fhir.ch/ig/ch-epl/StructureDefinition/ch-idmp-regulatedauthorization"]
      },
      "text" : {
        "status" : "generated",
        "div" : "<div xmlns=\"http://www.w3.org/1999/xhtml\"><a name=\"RegulatedAuthorization_MA-6743101\"> </a><p class=\"res-header-id\"><b>Generated Narrative: RegulatedAuthorization MA-6743101</b></p><a name=\"MA-6743101\"> </a><a name=\"hcMA-6743101\"> </a><a name=\"MA-6743101-en-US\"> </a><div style=\"display: inline-block; background-color: #d9e0e7; padding: 6px; margin: 4px; border: 1px solid #8da1b4; border-radius: 5px; line-height: 60%\"><p style=\"margin-bottom: 0px\"/><p style=\"margin-bottom: 0px\">Profile: <a href=\"StructureDefinition-ch-idmp-regulatedauthorization.html\">IDMP RegulatedAuthorization</a></p></div><p><b>identifier</b>: <code>http://SMC.ch/ig/idmp/NamingSystem/IDSystem-ch-MarketingAuthorisationNumber</code>/6743101</p><p><b>subject</b>: <a href=\"MedicinalProductDefinition-Triogen-250mg-Capsule.html\">MedicinalProductDefinition: extension = Capsule, hard,TRIOGEN wird verg端tet zur Behandlung der Kupferspeicherkrankheit (Morbus Wilson) bei Patienten, die eine Behandlung mit D-Penicillamin nicht vertragen. Die Behandlung muss von Gastroenterologen oder Hepatologen mit Erfahrung bei der Behandlung von Patienten mit Morbus Wilson initiiert und 端berwacht werden.; identifier = http://SMC.ch/ig/idmp/NamingSystem/IDSystem-ch-MPID#CH-7601001403062-6743101; domain = Human; indication = Zur Behandlung der Kupferspeicherkrankheit (Morbus Wilson) bei Patienten, die eine Behandlung mit D-Penicillamin nicht vertragen.; legalStatusOfSupply = Medicinal product subject to medical or veterinary prescription (B); additionalMonitoringIndicator = No Warning; pediatricUseIndicator = Authorised for the treatment in children; classification = trientine,NA KAS art. 12 para. 5 TPLO,Synthetic,Originator product</a></p><p><b>type</b>: <span title=\"Codes:{http://fhir.ch/ig/ch-epl/CodeSystem/ch-authorisation-type 756000002001}\">Marketing Authorisation</span></p><p><b>region</b>: <span title=\"Codes:{urn:iso:std:iso:3166 CH}\">Switzerland</span></p><p><b>status</b>: <span title=\"Codes:{http://fhir.ch/ig/ch-epl/CodeSystem/ch-SMC-authorisation-status 756005023007}\">valid</span></p><p><b>statusDate</b>: 2020-05-28</p><p><b>holder</b>: <a href=\"#hcMA-6743101/holder-Ideogen-AG\">Organization IDEOGEN AG</a></p><p><b>regulator</b>: <a href=\"#hcMA-6743101/regulator-SMC\">Organization SMC</a></p><hr/><blockquote><p class=\"res-header-id\"><b>Generated Narrative: Organization #holder-Ideogen-AG</b></p><a name=\"MA-6743101/holder-Ideogen-AG\"> </a><a name=\"hcMA-6743101/holder-Ideogen-AG\"> </a><a name=\"MA-6743101/holder-Ideogen-AG-en-US\"> </a><div style=\"display: inline-block; background-color: #d9e0e7; padding: 6px; margin: 4px; border: 1px solid #8da1b4; border-radius: 5px; line-height: 60%\"><p style=\"margin-bottom: 0px\"/><p style=\"margin-bottom: 0px\">Profile: <a href=\"StructureDefinition-ch-epl-organization.html\">CH EPL Organization</a></p></div><p><b>identifier</b>: <a href=\"NamingSystem-LOC.html\" title=\"Identifier holding a number for LocID (Location Identifier of the European Medicines Agency - Organisation Management System OMS)\">LOC Identifier</a>/100012910, <a href=\"NamingSystem-GLN.html\" title=\"Identifier holding a number for GLN (Global Location Number)\">GLN Identifier</a>/7601001403062</p><p><b>name</b>: IDEOGEN AG</p></blockquote><hr/><blockquote><p class=\"res-header-id\"><b>Generated Narrative: Organization #regulator-SMC</b></p><a name=\"MA-6743101/regulator-SMC\"> </a><a name=\"hcMA-6743101/regulator-SMC\"> </a><a name=\"MA-6743101/regulator-SMC-en-US\"> </a><div style=\"display: inline-block; background-color: #d9e0e7; padding: 6px; margin: 4px; border: 1px solid #8da1b4; border-radius: 5px; line-height: 60%\"><p style=\"margin-bottom: 0px\"/><p style=\"margin-bottom: 0px\">Profile: <a href=\"StructureDefinition-ch-epl-organization.html\">CH EPL Organization</a></p></div><p><b>identifier</b>: <a href=\"NamingSystem-LOC.html\" title=\"Identifier holding a number for LocID (Location Identifier of the European Medicines Agency - Organisation Management System OMS)\">LOC Identifier</a>/100010911, <a href=\"NamingSystem-GLN.html\" title=\"Identifier holding a number for GLN (Global Location Number)\">GLN Identifier</a>/7601001398511</p><p><b>name</b>: SMC</p></blockquote></div>"
      },
      "contained" : [{
        "resourceType" : "Organization",
        "id" : "holder-Ideogen-AG",
        "meta" : {
          "profile" : ["http://fhir.ch/ig/ch-epl/StructureDefinition/ch-epl-organization"]
        },
        "identifier" : [{
          "system" : "urn:oid:1.2.276.0.76",
          "value" : "100012910"
        },
        {
          "system" : "urn:oid:2.51.1.3",
          "value" : "7601001403062"
        }],
        "name" : "IDEOGEN AG"
      },
      {
        "resourceType" : "Organization",
        "id" : "regulator-SMC",
        "meta" : {
          "profile" : ["http://fhir.ch/ig/ch-epl/StructureDefinition/ch-epl-organization"]
        },
        "identifier" : [{
          "system" : "urn:oid:1.2.276.0.76",
          "value" : "100010911"
        },
        {
          "system" : "urn:oid:2.51.1.3",
          "value" : "7601001398511"
        }],
        "name" : "SMC"
      }],
      "identifier" : [{
        "system" : "http://SMC.ch/ig/idmp/NamingSystem/IDSystem-ch-MarketingAuthorisationNumber",
        "value" : "6743101"
      }],
      "subject" : [{
        "reference" : "MedicinalProductDefinition/Triogen-250mg-Capsule"
      }],
      "type" : {
        "coding" : [{
          "system" : "http://fhir.ch/ig/ch-epl/CodeSystem/ch-authorisation-type",
          "code" : "756000002001",
          "display" : "Marketing Authorisation"
        }]
      },
      "region" : [{
        "coding" : [{
          "system" : "urn:iso:std:iso:3166",
          "code" : "CH",
          "display" : "Switzerland"
        }]
      }],
      "status" : {
        "coding" : [{
          "system" : "http://fhir.ch/ig/ch-epl/CodeSystem/ch-SMC-authorisation-status",
          "code" : "756005023007",
          "display" : "valid"
        }]
      },
      "statusDate" : "2020-05-28",
      "holder" : {
        "reference" : "#holder-Ideogen-AG"
      },
      "regulator" : {
        "reference" : "#regulator-SMC"
      }
    }
  },
  {
    "fullUrl" : "http://example.org/PackagedProductDefinition/PMP-Triogen-250mg-Capsule",
    "resource" : {
      "resourceType" : "PackagedProductDefinition",
      "id" : "PMP-Triogen-250mg-Capsule",
      "meta" : {
        "profile" : ["http://fhir.ch/ig/ch-epl/StructureDefinition/ch-idmp-packagedproductdefinition"]
      },
      "text" : {
        "status" : "generated",
        "div" : "<div xmlns=\"http://www.w3.org/1999/xhtml\"><a name=\"PackagedProductDefinition_PMP-Triogen-250mg-Capsule\"> </a><p class=\"res-header-id\"><b>Generated Narrative: PackagedProductDefinition PMP-Triogen-250mg-Capsule</b></p><a name=\"PMP-Triogen-250mg-Capsule\"> </a><a name=\"hcPMP-Triogen-250mg-Capsule\"> </a><a name=\"PMP-Triogen-250mg-Capsule-en-US\"> </a><div style=\"display: inline-block; background-color: #d9e0e7; padding: 6px; margin: 4px; border: 1px solid #8da1b4; border-radius: 5px; line-height: 60%\"><p style=\"margin-bottom: 0px\"/><p style=\"margin-bottom: 0px\">Profile: <a href=\"StructureDefinition-ch-idmp-packagedproductdefinition.html\">IDMP PackagedProductDefinition</a></p></div><p><b>identifier</b>: <code>http://SMC.ch/ig/idmp/NamingSystem/IDSystem-ch-PCID</code>/CH-7601001403062-6743101-001</p><p><b>packageFor</b>: <a href=\"MedicinalProductDefinition-Triogen-250mg-Capsule.html\">MedicinalProductDefinition: extension = Capsule, hard,TRIOGEN wird verg端tet zur Behandlung der Kupferspeicherkrankheit (Morbus Wilson) bei Patienten, die eine Behandlung mit D-Penicillamin nicht vertragen. Die Behandlung muss von Gastroenterologen oder Hepatologen mit Erfahrung bei der Behandlung von Patienten mit Morbus Wilson initiiert und 端berwacht werden.; identifier = http://SMC.ch/ig/idmp/NamingSystem/IDSystem-ch-MPID#CH-7601001403062-6743101; domain = Human; indication = Zur Behandlung der Kupferspeicherkrankheit (Morbus Wilson) bei Patienten, die eine Behandlung mit D-Penicillamin nicht vertragen.; legalStatusOfSupply = Medicinal product subject to medical or veterinary prescription (B); additionalMonitoringIndicator = No Warning; pediatricUseIndicator = Authorised for the treatment in children; classification = trientine,NA KAS art. 12 para. 5 TPLO,Synthetic,Originator product</a></p><p><b>containedItemQuantity</b>: 100 Capsule<span style=\"background: LightGoldenRodYellow\"> (Details: EDQM - Standard Terms  code15012000 = 'Capsule')</span></p><p><b>description</b>: </p><div><p>TRIOGEN Kaps 250 mg Ds 100 Stk</p>\n</div><h3>LegalStatusOfSupplies</h3><table class=\"grid\"><tr><td style=\"display: none\">-</td><td><b>Code</b></td></tr><tr><td style=\"display: none\">*</td><td><span title=\"Codes:{http://fhir.ch/ig/ch-epl/CodeSystem/ch-SMC-legal-status-of-supply 756005022003}\">Medicinal product subject to medical or veterinary prescription (B)</span></td></tr></table><blockquote><p><b>packaging</b></p><p><b>identifier</b>: <a href=\"NamingSystem-GTIN.html\" title=\"GS1 defines trade items as products or services that are priced, ordered or invoiced at any point in the supply chain.\">Global Trade Item Number</a>/7680674310013</p><p><b>type</b>: <span title=\"Codes:{http://standardterms.edqm.eu 30009000}\">Box</span></p><p><b>quantity</b>: 1</p><h3>ShelfLifeStorages</h3><table class=\"grid\"><tr><td style=\"display: none\">-</td><td><b>Type</b></td><td><b>SpecialPrecautionsForStorage</b></td></tr><tr><td style=\"display: none\">*</td><td><span title=\"Codes:{http://spor.ema.europa.eu/v1/lists/100000073343 100000073403}\">Shelf life of the medicinal product as packaged for sale</span></td><td><span title=\"Codes:{http://fhir.ch/ig/ch-epl/CodeSystem/ch-SMC-special-precautions-for-storage 756005042009}\">Do not store above  30属C</span></td></tr></table></blockquote></div>"
      },
      "identifier" : [{
        "system" : "http://SMC.ch/ig/idmp/NamingSystem/IDSystem-ch-PCID",
        "value" : "CH-7601001403062-6743101-001"
      }],
      "packageFor" : [{
        "reference" : "MedicinalProductDefinition/Triogen-250mg-Capsule"
      }],
      "containedItemQuantity" : [{
        "value" : 100,
        "unit" : "Capsule",
        "system" : "http://standardterms.edqm.eu",
        "code" : "15012000"
      }],
      "description" : "TRIOGEN Kaps 250 mg Ds 100 Stk",
      "legalStatusOfSupply" : [{
        "code" : {
          "coding" : [{
            "system" : "http://fhir.ch/ig/ch-epl/CodeSystem/ch-SMC-legal-status-of-supply",
            "code" : "756005022003",
            "display" : "Medicinal product subject to medical or veterinary prescription (B)"
          }]
        }
      }],
      "packaging" : {
        "identifier" : [{
          "system" : "urn:oid:2.51.1.1",
          "value" : "7680674310013"
        }],
        "type" : {
          "coding" : [{
            "system" : "http://standardterms.edqm.eu",
            "code" : "30009000",
            "display" : "Box"
          }]
        },
        "quantity" : 1,
        "shelfLifeStorage" : [{
          "type" : {
            "coding" : [{
              "system" : "http://spor.ema.europa.eu/v1/lists/100000073343",
              "code" : "100000073403",
              "display" : "Shelf life of the medicinal product as packaged for sale"
            }]
          },
          "specialPrecautionsForStorage" : [{
            "coding" : [{
              "system" : "http://fhir.ch/ig/ch-epl/CodeSystem/ch-SMC-special-precautions-for-storage",
              "code" : "756005042009",
              "display" : "Do not store above  30属C"
            }]
          }]
        }]
      }
    }
  },
  {
    "fullUrl" : "http://example.org/RegulatedAuthorisation/MA-67431001",
    "resource" : {
      "resourceType" : "RegulatedAuthorization",
      "id" : "MA-67431001",
      "meta" : {
        "profile" : ["http://fhir.ch/ig/ch-epl/StructureDefinition/ch-idmp-regulatedauthorization"]
      },
      "text" : {
        "status" : "generated",
        "div" : "<div xmlns=\"http://www.w3.org/1999/xhtml\"><a name=\"RegulatedAuthorization_MA-67431001\"> </a><p class=\"res-header-id\"><b>Generated Narrative: RegulatedAuthorization MA-67431001</b></p><a name=\"MA-67431001\"> </a><a name=\"hcMA-67431001\"> </a><a name=\"MA-67431001-en-US\"> </a><div style=\"display: inline-block; background-color: #d9e0e7; padding: 6px; margin: 4px; border: 1px solid #8da1b4; border-radius: 5px; line-height: 60%\"><p style=\"margin-bottom: 0px\"/><p style=\"margin-bottom: 0px\">Profile: <a href=\"StructureDefinition-ch-idmp-regulatedauthorization.html\">IDMP RegulatedAuthorization</a></p></div><p><b>identifier</b>: <code>http://SMC.ch/ig/idmp/NamingSystem/IDSystem-ch-MarketingAuthorisationNumber</code>/67431001</p><p><b>subject</b>: <a href=\"MedicinalProductDefinition-Triogen-250mg-Capsule.html\">MedicinalProductDefinition: extension = Capsule, hard,TRIOGEN wird verg端tet zur Behandlung der Kupferspeicherkrankheit (Morbus Wilson) bei Patienten, die eine Behandlung mit D-Penicillamin nicht vertragen. Die Behandlung muss von Gastroenterologen oder Hepatologen mit Erfahrung bei der Behandlung von Patienten mit Morbus Wilson initiiert und 端berwacht werden.; identifier = http://SMC.ch/ig/idmp/NamingSystem/IDSystem-ch-MPID#CH-7601001403062-6743101; domain = Human; indication = Zur Behandlung der Kupferspeicherkrankheit (Morbus Wilson) bei Patienten, die eine Behandlung mit D-Penicillamin nicht vertragen.; legalStatusOfSupply = Medicinal product subject to medical or veterinary prescription (B); additionalMonitoringIndicator = No Warning; pediatricUseIndicator = Authorised for the treatment in children; classification = trientine,NA KAS art. 12 para. 5 TPLO,Synthetic,Originator product</a></p><p><b>type</b>: <span title=\"Codes:{http://fhir.ch/ig/ch-epl/CodeSystem/ch-authorisation-type 756000002001}\">Marketing Authorisation</span></p><p><b>region</b>: <span title=\"Codes:{urn:iso:std:iso:3166 CH}\">Switzerland</span></p><p><b>status</b>: <span title=\"Codes:{http://fhir.ch/ig/ch-epl/CodeSystem/ch-SMC-authorisation-status 756005023007}\">valid</span></p><p><b>statusDate</b>: 2020-05-28</p><p><b>holder</b>: <a href=\"#hcMA-67431001/holder-Ideogen-AG\">Organization IDEOGEN AG</a></p><p><b>regulator</b>: <a href=\"#hcMA-67431001/regulator-SMC\">Organization SMC</a></p><hr/><blockquote><p class=\"res-header-id\"><b>Generated Narrative: Organization #holder-Ideogen-AG</b></p><a name=\"MA-67431001/holder-Ideogen-AG\"> </a><a name=\"hcMA-67431001/holder-Ideogen-AG\"> </a><a name=\"MA-67431001/holder-Ideogen-AG-en-US\"> </a><div style=\"display: inline-block; background-color: #d9e0e7; padding: 6px; margin: 4px; border: 1px solid #8da1b4; border-radius: 5px; line-height: 60%\"><p style=\"margin-bottom: 0px\"/><p style=\"margin-bottom: 0px\">Profile: <a href=\"StructureDefinition-ch-epl-organization.html\">CH EPL Organization</a></p></div><p><b>identifier</b>: <a href=\"NamingSystem-LOC.html\" title=\"Identifier holding a number for LocID (Location Identifier of the European Medicines Agency - Organisation Management System OMS)\">LOC Identifier</a>/100012910, <a href=\"NamingSystem-GLN.html\" title=\"Identifier holding a number for GLN (Global Location Number)\">GLN Identifier</a>/7601001403062</p><p><b>name</b>: IDEOGEN AG</p></blockquote><hr/><blockquote><p class=\"res-header-id\"><b>Generated Narrative: Organization #regulator-SMC</b></p><a name=\"MA-67431001/regulator-SMC\"> </a><a name=\"hcMA-67431001/regulator-SMC\"> </a><a name=\"MA-67431001/regulator-SMC-en-US\"> </a><div style=\"display: inline-block; background-color: #d9e0e7; padding: 6px; margin: 4px; border: 1px solid #8da1b4; border-radius: 5px; line-height: 60%\"><p style=\"margin-bottom: 0px\"/><p style=\"margin-bottom: 0px\">Profile: <a href=\"StructureDefinition-ch-epl-organization.html\">CH EPL Organization</a></p></div><p><b>identifier</b>: <a href=\"NamingSystem-LOC.html\" title=\"Identifier holding a number for LocID (Location Identifier of the European Medicines Agency - Organisation Management System OMS)\">LOC Identifier</a>/100010911, <a href=\"NamingSystem-GLN.html\" title=\"Identifier holding a number for GLN (Global Location Number)\">GLN Identifier</a>/7601001398511</p><p><b>name</b>: SMC</p></blockquote></div>"
      },
      "contained" : [{
        "resourceType" : "Organization",
        "id" : "holder-Ideogen-AG",
        "meta" : {
          "profile" : ["http://fhir.ch/ig/ch-epl/StructureDefinition/ch-epl-organization"]
        },
        "identifier" : [{
          "system" : "urn:oid:1.2.276.0.76",
          "value" : "100012910"
        },
        {
          "system" : "urn:oid:2.51.1.3",
          "value" : "7601001403062"
        }],
        "name" : "IDEOGEN AG"
      },
      {
        "resourceType" : "Organization",
        "id" : "regulator-SMC",
        "meta" : {
          "profile" : ["http://fhir.ch/ig/ch-epl/StructureDefinition/ch-epl-organization"]
        },
        "identifier" : [{
          "system" : "urn:oid:1.2.276.0.76",
          "value" : "100010911"
        },
        {
          "system" : "urn:oid:2.51.1.3",
          "value" : "7601001398511"
        }],
        "name" : "SMC"
      }],
      "identifier" : [{
        "system" : "http://SMC.ch/ig/idmp/NamingSystem/IDSystem-ch-MarketingAuthorisationNumber",
        "value" : "67431001"
      }],
      "subject" : [{
        "reference" : "MedicinalProductDefinition/Triogen-250mg-Capsule"
      }],
      "type" : {
        "coding" : [{
          "system" : "http://fhir.ch/ig/ch-epl/CodeSystem/ch-authorisation-type",
          "code" : "756000002001",
          "display" : "Marketing Authorisation"
        }]
      },
      "region" : [{
        "coding" : [{
          "system" : "urn:iso:std:iso:3166",
          "code" : "CH",
          "display" : "Switzerland"
        }]
      }],
      "status" : {
        "coding" : [{
          "system" : "http://fhir.ch/ig/ch-epl/CodeSystem/ch-SMC-authorisation-status",
          "code" : "756005023007",
          "display" : "valid"
        }]
      },
      "statusDate" : "2020-05-28",
      "holder" : {
        "reference" : "#holder-Ideogen-AG"
      },
      "regulator" : {
        "reference" : "#regulator-SMC"
      }
    }
  },
  {
    "fullUrl" : "http://example.org/RegulatedAuthorisation/FOPH-21070",
    "resource" : {
      "resourceType" : "RegulatedAuthorization",
      "id" : "FOPH-21070",
      "text" : {
        "status" : "extensions",
        "div" : "<div xmlns=\"http://www.w3.org/1999/xhtml\"><a name=\"RegulatedAuthorization_FOPH-21070\"> </a><p class=\"res-header-id\"><b>Generated Narrative: RegulatedAuthorization FOPH-21070</b></p><a name=\"FOPH-21070\"> </a><a name=\"hcFOPH-21070\"> </a><a name=\"FOPH-21070-en-US\"> </a><blockquote><p><b>CH - EPL Reimbursement SL</b></p><ul><li>FOPHDossierNumber: <a href=\"NamingSystem-Dossier.html\" title=\"Identifier holding the Dossier number of FOPH\">FOPH Dossier Number</a>/21070</li><li>status: <span title=\"Codes:{http://fhir.ch/ig/ch-epl/CodeSystem/ch-epl-foph-reimbursement-status 756001021001}\">Reimbursed</span></li><li>statusDate: 2020-09-01</li><li>listingStatus: <span title=\"Codes:{http://fhir.ch/ig/ch-epl/CodeSystem/ch-epl-foph-listing-status 756001002001}\">Listed</span></li><li>listingPeriod: 2020-09-01 --&gt; (ongoing)</li><li>firstListingDate: 2020-09-01</li><li>costShare: 10</li><li>gamme: <span title=\"Codes:{http://fhir.ch/ig/ch-epl/CodeSystem/ch-epl-foph-gamme 756002004001}\">Oral</span></li></ul></blockquote><blockquote><p><b>CH - EPL Product Price</b></p><ul><li>value: <span title=\"Swiss Franc\">CHF4,117.12</span> (CHF)</li><li>type: <span title=\"Codes:{http://fhir.ch/ig/ch-epl/CodeSystem/ch-epl-foph-price-type 756002005002}\">Ex-factory price</span></li><li>changeType: <span title=\"Codes:{http://fhir.ch/ig/ch-epl/CodeSystem/ch-epl-foph-type-of-price-change 756002006010}\">Price mutation at first listing</span></li><li>changeDate: 2020-09-01</li></ul></blockquote><blockquote><p><b>CH - EPL Product Price</b></p><ul><li>value: <span title=\"Swiss Franc\">CHF4,470.40</span> (CHF)</li><li>type: <span title=\"Codes:{http://fhir.ch/ig/ch-epl/CodeSystem/ch-epl-foph-price-type 756002005001}\">Retail price</span></li><li>changeType: <span title=\"Codes:{http://fhir.ch/ig/ch-epl/CodeSystem/ch-epl-foph-type-of-price-change 756002006005}\">VAT-change</span></li><li>changeDate: 2024-01-01</li></ul></blockquote><p><b>subject</b>: <a href=\"PackagedProductDefinition-PMP-Triogen-250mg-Capsule.html\">PackagedProductDefinition: identifier = http://SMC.ch/ig/idmp/NamingSystem/IDSystem-ch-PCID#CH-7601001403062-6743101-001; containedItemQuantity = 100 Capsule; description = TRIOGEN Kaps 250 mg Ds 100 Stk</a></p><p><b>type</b>: <span title=\"Codes:{http://fhir.ch/ig/ch-epl/CodeSystem/ch-authorisation-type 756000002003}\">Reimbursement SL</span></p><h3>Indications</h3><table class=\"grid\"><tr><td style=\"display: none\">-</td><td><b>Extension</b></td><td><b>Reference</b></td></tr><tr><td style=\"display: none\">*</td><td/><td><a href=\"ClinicalUseDefinition-IND-10061091.html\">ClinicalUseDefinition: type = indication</a></td></tr></table><p><b>holder</b>: <a href=\"#hcFOPH-21070/holder-Ideogen-AG\">Organization IDEOGEN AG</a></p><hr/><blockquote><p class=\"res-header-id\"><b>Generated Narrative: Organization #holder-Ideogen-AG</b></p><a name=\"FOPH-21070/holder-Ideogen-AG\"> </a><a name=\"hcFOPH-21070/holder-Ideogen-AG\"> </a><a name=\"FOPH-21070/holder-Ideogen-AG-en-US\"> </a><div style=\"display: inline-block; background-color: #d9e0e7; padding: 6px; margin: 4px; border: 1px solid #8da1b4; border-radius: 5px; line-height: 60%\"><p style=\"margin-bottom: 0px\"/><p style=\"margin-bottom: 0px\">Profile: <a href=\"StructureDefinition-ch-epl-organization.html\">CH EPL Organization</a></p></div><p><b>identifier</b>: <a href=\"NamingSystem-LOC.html\" title=\"Identifier holding a number for LocID (Location Identifier of the European Medicines Agency - Organisation Management System OMS)\">LOC Identifier</a>/100012910, <a href=\"NamingSystem-GLN.html\" title=\"Identifier holding a number for GLN (Global Location Number)\">GLN Identifier</a>/7601001403062</p><p><b>name</b>: IDEOGEN AG</p></blockquote></div>"
      },
      "contained" : [{
        "resourceType" : "Organization",
        "id" : "holder-Ideogen-AG",
        "meta" : {
          "profile" : ["http://fhir.ch/ig/ch-epl/StructureDefinition/ch-epl-organization"]
        },
        "identifier" : [{
          "system" : "urn:oid:1.2.276.0.76",
          "value" : "100012910"
        },
        {
          "system" : "urn:oid:2.51.1.3",
          "value" : "7601001403062"
        }],
        "name" : "IDEOGEN AG"
      }],
      "extension" : [{
        "extension" : [{
          "url" : "FOPHDossierNumber",
          "valueIdentifier" : {
            "system" : "urn:oid:2.16.756.1",
            "value" : "21070"
          }
        },
        {
          "url" : "status",
          "valueCodeableConcept" : {
            "coding" : [{
              "system" : "http://fhir.ch/ig/ch-epl/CodeSystem/ch-epl-foph-reimbursement-status",
              "code" : "756001021001",
              "display" : "Reimbursed"
            }]
          }
        },
        {
          "url" : "statusDate",
          "valueDate" : "2020-09-01"
        },
        {
          "url" : "listingStatus",
          "valueCodeableConcept" : {
            "coding" : [{
              "system" : "http://fhir.ch/ig/ch-epl/CodeSystem/ch-epl-foph-listing-status",
              "code" : "756001002001",
              "display" : "Listed"
            }]
          }
        },
        {
          "url" : "listingPeriod",
          "valuePeriod" : {
            "start" : "2020-09-01"
          }
        },
        {
          "url" : "firstListingDate",
          "valueDate" : "2020-09-01"
        },
        {
          "url" : "costShare",
          "valueInteger" : 10
        },
        {
          "url" : "gamme",
          "valueCodeableConcept" : {
            "coding" : [{
              "system" : "http://fhir.ch/ig/ch-epl/CodeSystem/ch-epl-foph-gamme",
              "code" : "756002004001",
              "display" : "Oral"
            }]
          }
        }],
        "url" : "http://fhir.ch/ig/ch-epl/StructureDefinition/reimbursementSL"
      },
      {
        "extension" : [{
          "url" : "value",
          "valueMoney" : {
            "value" : 4117.12,
            "currency" : "CHF"
          }
        },
        {
          "url" : "type",
          "valueCodeableConcept" : {
            "coding" : [{
              "system" : "http://fhir.ch/ig/ch-epl/CodeSystem/ch-epl-foph-price-type",
              "code" : "756002005002",
              "display" : "Ex-factory price"
            }]
          }
        },
        {
          "url" : "changeType",
          "valueCodeableConcept" : {
            "coding" : [{
              "system" : "http://fhir.ch/ig/ch-epl/CodeSystem/ch-epl-foph-type-of-price-change",
              "code" : "756002006010",
              "display" : "Price mutation at first listing"
            }]
          }
        },
        {
          "url" : "changeDate",
          "valueDate" : "2020-09-01"
        }],
        "url" : "http://fhir.ch/ig/ch-epl/StructureDefinition/productPrice"
      },
      {
        "extension" : [{
          "url" : "value",
          "valueMoney" : {
            "value" : 4470.4,
            "currency" : "CHF"
          }
        },
        {
          "url" : "type",
          "valueCodeableConcept" : {
            "coding" : [{
              "system" : "http://fhir.ch/ig/ch-epl/CodeSystem/ch-epl-foph-price-type",
              "code" : "756002005001",
              "display" : "Retail price"
            }]
          }
        },
        {
          "url" : "changeType",
          "valueCodeableConcept" : {
            "coding" : [{
              "system" : "http://fhir.ch/ig/ch-epl/CodeSystem/ch-epl-foph-type-of-price-change",
              "code" : "756002006005",
              "display" : "VAT-change"
            }]
          }
        },
        {
          "url" : "changeDate",
          "valueDate" : "2024-01-01"
        }],
        "url" : "http://fhir.ch/ig/ch-epl/StructureDefinition/productPrice"
      }],
      "subject" : [{
        "reference" : "PackagedProductDefinition/PMP-Triogen-250mg-Capsule"
      }],
      "type" : {
        "coding" : [{
          "system" : "http://fhir.ch/ig/ch-epl/CodeSystem/ch-authorisation-type",
          "code" : "756000002003",
          "display" : "Reimbursement SL"
        }]
      },
      "indication" : [{
        "extension" : [{
          "extension" : [{
            "url" : "status",
            "valueCodeableConcept" : {
              "coding" : [{
                "system" : "http://fhir.ch/ig/ch-epl/CodeSystem/ch-epl-foph-limitationstatus",
                "code" : "756002071001",
                "display" : "Limitation Reimbursed"
              }]
            }
          },
          {
            "url" : "statusDate",
            "valueDate" : "2020-09-01"
          },
          {
            "url" : "period",
            "valuePeriod" : {
              "start" : "2020-09-01"
            }
          },
          {
            "url" : "firstLimitationDate",
            "valueDate" : "2020-09-01"
          },
          {
            "url" : "limitationIndication",
            "valueReference" : {
              "reference" : "ClinicalUseDefinition/LIM-79886009"
            }
          },
          {
            "extension" : [{
              "url" : "value",
              "valueMoney" : {
                "value" : 4117.12,
                "currency" : "CHF"
              }
            },
            {
              "url" : "type",
              "valueCodeableConcept" : {
                "coding" : [{
                  "system" : "http://fhir.ch/ig/ch-epl/CodeSystem/ch-epl-foph-price-type",
                  "code" : "756002005002",
                  "display" : "Ex-factory price"
                }]
              }
            },
            {
              "url" : "changeType",
              "valueCodeableConcept" : {
                "coding" : [{
                  "system" : "http://fhir.ch/ig/ch-epl/CodeSystem/ch-epl-foph-type-of-price-change",
                  "code" : "756002006007",
                  "display" : "Price mutation after triennal review of pharmaceuticals"
                }]
              }
            },
            {
              "url" : "changeDate",
              "valueDate" : "2020-09-01"
            }],
            "url" : "http://fhir.ch/ig/ch-epl/StructureDefinition/productPrice"
          },
          {
            "extension" : [{
              "url" : "value",
              "valueMoney" : {
                "value" : 4470.4,
                "currency" : "CHF"
              }
            },
            {
              "url" : "type",
              "valueCodeableConcept" : {
                "coding" : [{
                  "system" : "http://fhir.ch/ig/ch-epl/CodeSystem/ch-epl-foph-price-type",
                  "code" : "756002005001",
                  "display" : "Retail price"
                }]
              }
            },
            {
              "url" : "changeType",
              "valueCodeableConcept" : {
                "coding" : [{
                  "system" : "http://fhir.ch/ig/ch-epl/CodeSystem/ch-epl-foph-type-of-price-change",
                  "code" : "756002006005",
                  "display" : "VAT-change"
                }]
              }
            },
            {
              "url" : "changeDate",
              "valueDate" : "2024-01-01"
            }],
            "url" : "http://fhir.ch/ig/ch-epl/StructureDefinition/productPrice"
          }],
          "url" : "http://fhir.ch/ig/ch-epl/StructureDefinition/regulatedAuthorization-limitation"
        }],
        "reference" : {
          "reference" : "ClinicalUseDefinition/IND-10061091"
        }
      }],
      "holder" : {
        "reference" : "#holder-Ideogen-AG"
      }
    }
  },
  {
    "fullUrl" : "http://example.org/ManufacturedItemDefinition/MI-Trientinum-250mg-Capsule",
    "resource" : {
      "resourceType" : "ManufacturedItemDefinition",
      "id" : "MI-Trientinum-250mg-Capsule",
      "meta" : {
        "profile" : ["http://fhir.ch/ig/ch-epl/StructureDefinition/ch-idmp-manufactureditemdefinition"]
      },
      "text" : {
        "status" : "generated",
        "div" : "<div xmlns=\"http://www.w3.org/1999/xhtml\"><a name=\"ManufacturedItemDefinition_MI-Trientinum-250mg-Capsule\"> </a><p class=\"res-header-id\"><b>Generated Narrative: ManufacturedItemDefinition MI-Trientinum-250mg-Capsule</b></p><a name=\"MI-Trientinum-250mg-Capsule\"> </a><a name=\"hcMI-Trientinum-250mg-Capsule\"> </a><a name=\"MI-Trientinum-250mg-Capsule-en-US\"> </a><div style=\"display: inline-block; background-color: #d9e0e7; padding: 6px; margin: 4px; border: 1px solid #8da1b4; border-radius: 5px; line-height: 60%\"><p style=\"margin-bottom: 0px\"/><p style=\"margin-bottom: 0px\">Profile: <a href=\"StructureDefinition-ch-idmp-manufactureditemdefinition.html\">CH IDMP ManufacturedItemDefinition</a></p></div><p><b>status</b>: Active</p><p><b>manufacturedDoseForm</b>: <span title=\"Codes:{http://standardterms.edqm.eu 10210000}\">Capsule, hard</span></p><p><b>unitOfPresentation</b>: <span title=\"Codes:{http://standardterms.edqm.eu 15012000}\">Capsule</span></p></div>"
      },
      "status" : "active",
      "manufacturedDoseForm" : {
        "coding" : [{
          "system" : "http://standardterms.edqm.eu",
          "code" : "10210000",
          "display" : "Capsule, hard"
        }]
      },
      "unitOfPresentation" : {
        "coding" : [{
          "system" : "http://standardterms.edqm.eu",
          "code" : "15012000",
          "display" : "Capsule"
        }]
      }
    }
  },
  {
    "fullUrl" : "http://example.org/AdministrableProductDefinition/PhP-Trientinum-250mg-Capsule",
    "resource" : {
      "resourceType" : "AdministrableProductDefinition",
      "id" : "PhP-Trientinum-250mg-Capsule",
      "meta" : {
        "profile" : ["http://fhir.ch/ig/ch-epl/StructureDefinition/ch-idmp-administrableproductdefinition"]
      },
      "text" : {
        "status" : "generated",
        "div" : "<div xmlns=\"http://www.w3.org/1999/xhtml\"><a name=\"AdministrableProductDefinition_PhP-Trientinum-250mg-Capsule\"> </a><p class=\"res-header-id\"><b>Generated Narrative: AdministrableProductDefinition PhP-Trientinum-250mg-Capsule</b></p><a name=\"PhP-Trientinum-250mg-Capsule\"> </a><a name=\"hcPhP-Trientinum-250mg-Capsule\"> </a><a name=\"PhP-Trientinum-250mg-Capsule-en-US\"> </a><div style=\"display: inline-block; background-color: #d9e0e7; padding: 6px; margin: 4px; border: 1px solid #8da1b4; border-radius: 5px; line-height: 60%\"><p style=\"margin-bottom: 0px\"/><p style=\"margin-bottom: 0px\">Profile: <a href=\"StructureDefinition-ch-idmp-administrableproductdefinition.html\">CH IDMP AdministrableProductDefinition</a></p></div><p><b>status</b>: Active</p><p><b>formOf</b>: <a href=\"MedicinalProductDefinition-Triogen-250mg-Capsule.html\">MedicinalProductDefinition: extension = Capsule, hard,TRIOGEN wird verg端tet zur Behandlung der Kupferspeicherkrankheit (Morbus Wilson) bei Patienten, die eine Behandlung mit D-Penicillamin nicht vertragen. Die Behandlung muss von Gastroenterologen oder Hepatologen mit Erfahrung bei der Behandlung von Patienten mit Morbus Wilson initiiert und 端berwacht werden.; identifier = http://SMC.ch/ig/idmp/NamingSystem/IDSystem-ch-MPID#CH-7601001403062-6743101; domain = Human; indication = Zur Behandlung der Kupferspeicherkrankheit (Morbus Wilson) bei Patienten, die eine Behandlung mit D-Penicillamin nicht vertragen.; legalStatusOfSupply = Medicinal product subject to medical or veterinary prescription (B); additionalMonitoringIndicator = No Warning; pediatricUseIndicator = Authorised for the treatment in children; classification = trientine,NA KAS art. 12 para. 5 TPLO,Synthetic,Originator product</a></p><p><b>administrableDoseForm</b>: <span title=\"Codes:{http://standardterms.edqm.eu 10210000}\">Capsule, hard</span></p><p><b>unitOfPresentation</b>: <span title=\"Codes:{http://standardterms.edqm.eu 15012000}\">Capsule</span></p><h3>RouteOfAdministrations</h3><table class=\"grid\"><tr><td style=\"display: none\">-</td><td><b>Code</b></td></tr><tr><td style=\"display: none\">*</td><td><span title=\"Codes:{http://standardterms.edqm.eu 20053000}\">Oral use</span></td></tr></table></div>"
      },
      "status" : "active",
      "formOf" : [{
        "reference" : "MedicinalProductDefinition/Triogen-250mg-Capsule"
      }],
      "administrableDoseForm" : {
        "coding" : [{
          "system" : "http://standardterms.edqm.eu",
          "code" : "10210000",
          "display" : "Capsule, hard"
        }]
      },
      "unitOfPresentation" : {
        "coding" : [{
          "system" : "http://standardterms.edqm.eu",
          "code" : "15012000",
          "display" : "Capsule"
        }]
      },
      "routeOfAdministration" : [{
        "code" : {
          "coding" : [{
            "system" : "http://standardterms.edqm.eu",
            "code" : "20053000",
            "display" : "Oral use"
          }]
        }
      }]
    }
  },
  {
    "fullUrl" : "http://example.org/Ingredient/Trientinum250",
    "resource" : {
      "resourceType" : "Ingredient",
      "id" : "Trientinum250",
      "meta" : {
        "profile" : ["http://fhir.ch/ig/ch-epl/StructureDefinition/ch-idmp-ingredient"]
      },
      "text" : {
        "status" : "generated",
        "div" : "<div xmlns=\"http://www.w3.org/1999/xhtml\"><a name=\"Ingredient_Trientinum250\"> </a><p class=\"res-header-id\"><b>Generated Narrative: Ingredient Trientinum250</b></p><a name=\"Trientinum250\"> </a><a name=\"hcTrientinum250\"> </a><a name=\"Trientinum250-en-US\"> </a><div style=\"display: inline-block; background-color: #d9e0e7; padding: 6px; margin: 4px; border: 1px solid #8da1b4; border-radius: 5px; line-height: 60%\"><p style=\"margin-bottom: 0px\"/><p style=\"margin-bottom: 0px\">Profile: <a href=\"StructureDefinition-ch-idmp-ingredient.html\">IDMP Ingredient</a></p></div><p><b>status</b>: Active</p><p><b>for</b>: </p><ul><li><a href=\"AdministrableProductDefinition-PhP-Trientinum-250mg-Capsule.html\">AdministrableProductDefinition: status = active; administrableDoseForm = Capsule, hard; unitOfPresentation = Capsule</a></li><li><a href=\"ManufacturedItemDefinition-MI-Trientinum-250mg-Capsule.html\">ManufacturedItemDefinition: status = active; manufacturedDoseForm = Capsule, hard; unitOfPresentation = Capsule</a></li></ul><p><b>role</b>: <span title=\"Codes:{http://fhir.ch/ig/ch-epl/CodeSystem/ch-SMC-ingredient-role 756005051001}\">Active</span></p><blockquote><p><b>substance</b></p><h3>Codes</h3><table class=\"grid\"><tr><td style=\"display: none\">-</td><td><b>Concept</b></td></tr><tr><td style=\"display: none\">*</td><td><span title=\"Codes:{http://fhir.ch/ig/ch-epl/CodeSystem/ch-SMC-substance SJ76Y07H5F}\">Trientine</span></td></tr></table><h3>Strengths</h3><table class=\"grid\"><tr><td style=\"display: none\">-</td><td><b>Presentation[x]</b></td></tr><tr><td style=\"display: none\">*</td><td>250 mg<span style=\"background: LightGoldenRodYellow\"> (Details: UCUM  codemg = 'mg')</span>/1 Capsule<span style=\"background: LightGoldenRodYellow\"> (Details: EDQM - Standard Terms  code15012000 = 'Capsule')</span></td></tr></table></blockquote></div>"
      },
      "status" : "active",
      "for" : [{
        "reference" : "AdministrableProductDefinition/PhP-Trientinum-250mg-Capsule"
      },
      {
        "reference" : "ManufacturedItemDefinition/MI-Trientinum-250mg-Capsule"
      }],
      "role" : {
        "coding" : [{
          "system" : "http://fhir.ch/ig/ch-epl/CodeSystem/ch-SMC-ingredient-role",
          "code" : "756005051001",
          "display" : "Active"
        }]
      },
      "substance" : {
        "code" : {
          "concept" : {
            "coding" : [{
              "system" : "http://fhir.ch/ig/ch-epl/CodeSystem/ch-SMC-substance",
              "code" : "SJ76Y07H5F",
              "display" : "Trientine"
            }]
          }
        },
        "strength" : [{
          "presentationRatio" : {
            "numerator" : {
              "value" : 250,
              "unit" : "mg",
              "system" : "http://unitsofmeasure.org",
              "code" : "mg"
            },
            "denominator" : {
              "value" : 1,
              "unit" : "Capsule",
              "system" : "http://standardterms.edqm.eu",
              "code" : "15012000"
            }
          }
        }]
      }
    }
  },
  {
    "fullUrl" : "http://example.org/ClinicalUseDefinition/IND-10061091",
    "resource" : {
      "resourceType" : "ClinicalUseDefinition",
      "id" : "IND-10061091",
      "meta" : {
        "profile" : ["http://fhir.ch/ig/ch-epl/StructureDefinition/ch-idmp-clinicalusedefinition-indication"]
      },
      "text" : {
        "status" : "generated",
        "div" : "<div xmlns=\"http://www.w3.org/1999/xhtml\"><a name=\"ClinicalUseDefinition_IND-10061091\"> </a><p class=\"res-header-id\"><b>Generated Narrative: ClinicalUseDefinition IND-10061091</b></p><a name=\"IND-10061091\"> </a><a name=\"hcIND-10061091\"> </a><a name=\"IND-10061091-en-US\"> </a><div style=\"display: inline-block; background-color: #d9e0e7; padding: 6px; margin: 4px; border: 1px solid #8da1b4; border-radius: 5px; line-height: 60%\"><p style=\"margin-bottom: 0px\"/><p style=\"margin-bottom: 0px\">Profile: <a href=\"StructureDefinition-ch-idmp-clinicalusedefinition-indication.html\">CH IDMP ClinicalUseDefinition Indication</a></p></div><p><b>type</b>: Indication</p><p><b>subject</b>: <a href=\"MedicinalProductDefinition-Cuprior-150mg-Filmcoatedtablet.html\">MedicinalProductDefinition: extension = Film-coated tablet,CUPRIOR wird verg端tet zur Behandlung der Kupferspeicherkrankheit (Morbus Wilson) bei Erwachsenen, Jugendlichen und Kindern im Alter von 5 Jahren oder 辰lter, die eine Behandlung mit D-Penicillamin nicht vertragen. Die Behandlung muss von Gastroenterologen oder Hepatologen mit Erfahrung bei der Behandlung von Patienten mit Morbus Wilson initiiert und 端berwacht werden.; identifier = http://SMC.ch/ig/idmp/NamingSystem/IDSystem-ch-MPID#CH-7640109110007-6771901; domain = Human; indication = Cuprior wird angewendet zur Behandlung von Morbus Wilson bei Erwachsenen, Jugendlichen und Kindern im Alter von 5 Jahren oder 辰lter mit Unvertr辰glichkeit gegen端ber einer D-Penicillamin-Therapie.; legalStatusOfSupply = Medicinal product subject to medical or veterinary prescription (B); additionalMonitoringIndicator = No Warning; pediatricUseIndicator = Authorised for the treatment in children; classification = gilteritinib,NA KAS art. 12 para. 5 TPLO,Synthetic,Originator product</a></p><blockquote><p><b>indication</b></p><h3>DiseaseSymptomProcedures</h3><table class=\"grid\"><tr><td style=\"display: none\">-</td><td><b>Concept</b></td></tr><tr><td style=\"display: none\">*</td><td><span title=\"Codes:{https://www.meddra.org 10061091}\">Wilson's disease</span></td></tr></table><h3>IntendedEffects</h3><table class=\"grid\"><tr><td style=\"display: none\">-</td><td><b>Concept</b></td></tr><tr><td style=\"display: none\">*</td><td><span title=\"Codes:{http://spor.ema.europa.eu/v1/lists/200000003186 200000003194}\">therapeutic</span></td></tr></table></blockquote></div>"
      },
      "type" : "indication",
      "subject" : [{
        "reference" : "MedicinalProductDefinition/Cuprior-150mg-Filmcoatedtablet"
      }],
      "indication" : {
        "diseaseSymptomProcedure" : {
          "concept" : {
            "coding" : [{
              "system" : "https://www.meddra.org",
              "code" : "10061091",
              "display" : "Wilson's disease"
            }]
          }
        },
        "intendedEffect" : {
          "concept" : {
            "coding" : [{
              "system" : "http://spor.ema.europa.eu/v1/lists/200000003186",
              "code" : "200000003194",
              "display" : "therapeutic"
            }]
          }
        }
      }
    }
  },
  {
    "fullUrl" : "http://example.org/ClinicalUseDefinition/LIM-79886009",
    "resource" : {
      "resourceType" : "ClinicalUseDefinition",
      "id" : "LIM-79886009",
      "text" : {
        "status" : "generated",
        "div" : "<div xmlns=\"http://www.w3.org/1999/xhtml\"><a name=\"ClinicalUseDefinition_LIM-79886009\"> </a><p class=\"res-header-id\"><b>Generated Narrative: ClinicalUseDefinition LIM-79886009</b></p><a name=\"LIM-79886009\"> </a><a name=\"hcLIM-79886009\"> </a><a name=\"LIM-79886009-en-US\"> </a><p><b>type</b>: Indication</p><blockquote><p><b>indication</b></p><h3>DiseaseSymptomProcedures</h3><table class=\"grid\"><tr><td style=\"display: none\">-</td><td><b>Concept</b></td></tr><tr><td style=\"display: none\">*</td><td><span title=\"Codes:{http://snomed.info/sct 79886009}\">Disorder of copper metabolism</span></td></tr></table><h3>IntendedEffects</h3><table class=\"grid\"><tr><td style=\"display: none\">-</td><td><b>Concept</b></td></tr><tr><td style=\"display: none\">*</td><td><span title=\"Codes:{http://spor.ema.europa.eu/v1/lists/200000003186 200000003194}\">therapeutic</span></td></tr></table></blockquote></div>"
      },
      "type" : "indication",
      "indication" : {
        "diseaseSymptomProcedure" : {
          "concept" : {
            "coding" : [{
              "system" : "http://snomed.info/sct",
              "code" : "79886009",
              "display" : "Disorder of copper metabolism"
            }]
          }
        },
        "intendedEffect" : {
          "concept" : {
            "coding" : [{
              "system" : "http://spor.ema.europa.eu/v1/lists/200000003186",
              "code" : "200000003194",
              "display" : "therapeutic"
            }]
          }
        }
      }
    }
  }]
}