<?xml version="1.0" encoding="UTF-8"?>

<Bundle xmlns="http://hl7.org/fhir">
  <id value="a69ea53d-79d4-46f4-bd2e-7a71439f148f"/>
  <meta>
    <profile value="http://fhir.ch/ig/ch-epl/StructureDefinition/ch-idmp-bundle"/>
  </meta>
  <type value="collection"/>
  <entry>
    <fullUrl value="http://example.org/MedicinalProductDefinition/Paxlovid-Filmcoatedtablet"/>
    <resource>
      <MedicinalProductDefinition>
        <id value="Paxlovid-Filmcoatedtablet"/>
        <meta>
          <profile value="http://fhir.ch/ig/ch-epl/StructureDefinition/ch-idmp-medicinalproductdefinition"/>
        </meta>
        <text>
          <status value="extensions"/><div xmlns="http://www.w3.org/1999/xhtml"><a name="MedicinalProductDefinition_Paxlovid-Filmcoatedtablet"> </a><p class="res-header-id"><b>Generated Narrative: MedicinalProductDefinition Paxlovid-Filmcoatedtablet</b></p><a name="Paxlovid-Filmcoatedtablet"> </a><a name="hcPaxlovid-Filmcoatedtablet"> </a><a name="Paxlovid-Filmcoatedtablet-en-US"> </a><div style="display: inline-block; background-color: #d9e0e7; padding: 6px; margin: 4px; border: 1px solid #8da1b4; border-radius: 5px; line-height: 60%"><p style="margin-bottom: 0px"/><p style="margin-bottom: 0px">Profile: <a href="StructureDefinition-ch-idmp-medicinalproductdefinition.html">IDMP MedicinalProductDefinition</a></p></div><p><b>CH - SMC Authorized Dose Form</b>: <span title="Codes:{http://standardterms.edqm.eu 10221000}">Film-coated tablet</span></p><p><b>CH - EPL Full Limitation Text</b>: Befristete Limitation bis 31.12.2025. PAXLOVID wird als antivirale Monotherapie für die Behandlung einer bestätigten Covid-19 Infektion (Positiver Erregernachweis Antigen/PCR und vorhandener Covid-19-Symptome) in folgenden Fällen vergütet:
 • in einer Dosierung von 300 mg Nirmatrelvir (zwei Tabletten zu je 150 mg) und 100 mg Ritonavir (eine Tablette zu 100 mg) zur gleichzeitigen Einnahme alle 12 Stunden, über einen Zeitraum von 5 Tagen
 • zur Frühbehandlung (ausser bei immunsupprimierten Personen vorzugsweise innerhalb von 5 Tagen nach Symptombeginn) bei Erwachsenen, die keine Sauerstofftherapie oder Hospitalisierung aufgrund von COVID-19 benötigen und für welche gemäss der aktuell gültigen Kriterienliste der Schweizerischen Gesellschaft für Infektiologie (SSI) (https://www.bag.admin.ch/bag/de/home/medizin-und-forschung/heilmittel/versorgung-covid-19-arzneimittel.html) ein erhöhtes Risiko für einen schweren COVID-19-Verlauf besteht.</p><p><b>identifier</b>: <code>http://SMC.ch/ig/idmp/NamingSystem/IDSystem-ch-MPID</code>/CH-7601001010604-6879301</p><p><b>domain</b>: <span title="Codes:{http://spor.ema.europa.eu/v1/lists/100000000004 100000000012}">Human</span></p><p><b>indication</b>: </p><div><p>Paxlovid wird angewendet für die Behandlung der Coronavirus-Krankheit 2019 (COVID-19) bei Erwachsenen, die keine Sauerstofftherapie oder Hospitalisierung aufgrund von COVID-19 benötigen und bei denen ein erhöhtes Risiko für einen schweren Verlauf von COVID-19 besteht (siehe «Klinische Wirksamkeit»).
Paxlovid ist nicht als Ersatz für eine Impfung gegen COVID-19 vorgesehen. Paxlovid sollte gemäss den offiziellen Empfehlungen und unter Berücksichtigung der lokalen epidemiologischen Daten zu zirkulierenden SARS-CoV-2-Varianten angewendet werden.</p>
</div><p><b>legalStatusOfSupply</b>: <span title="Codes:{http://fhir.ch/ig/ch-epl/CodeSystem/ch-SMC-legal-status-of-supply 756005022002}">Medicinal product subject to medical or veterinary prescription single dispensation (A+)</span></p><p><b>additionalMonitoringIndicator</b>: <span title="Codes:{http://fhir.ch/ig/ch-epl/CodeSystem/ch-SMC-additional-monitoring-indicator 756005001001}">Black Triangle Warning</span></p><p><b>pediatricUseIndicator</b>: <span title="Codes:{http://fhir.ch/ig/ch-epl/CodeSystem/ch-SMC-pediatric-use-indicator 756005003002}">Not authorised for the treatment in children</span></p><p><b>classification</b>: <span title="Codes:{http://www.whocc.no/atc J05AE}">Protease inhibitors</span>, <span title="Codes:{http://fhir.ch/ig/ch-epl/CodeSystem/ch-SMC-authorisation-category 756005021001}">NA KAS art. 12 para. 5 TPLO</span>, <span title="Codes:{http://fhir.ch/ig/ch-epl/CodeSystem/ch-SMC-therapeuticproductcode 756005004001}">Synthetic</span>, <span title="Codes:{http://fhir.ch/ig/ch-epl/CodeSystem/ch-epl-foph-product-type 756001003002}">Originator product</span></p><p><b>attachedDocument</b>: </p><ul><li><a href="DocumentReference-DocRef-FI-Paxlovid.html">DocumentReference: identifier = http://SMC.ch/ig/idmp/NamingSystem/IDSystem-ch-AttachmentNumber#123456789-initial submission-Example-nop-123; status = current; type = Fachinformation; date = 2024-07-01 00:00:00+0000</a></li><li><a href="DocumentReference-DocRef-PI-Paxlovid.html">DocumentReference: identifier = http://SMC.ch/ig/idmp/NamingSystem/IDSystem-ch-AttachmentNumber#123456789-initial submission-Example-nop-321; status = current; type = Patienteninformation; date = 2024-07-01 00:00:00+0000</a></li></ul><blockquote><p><b>name</b></p><p><b>productName</b>: PAXLOVID Filmtabl 4x150mg/2x100mg</p><p><b>type</b>: <span title="Codes:{http://fhir.ch/ig/ch-epl/CodeSystem/ch-medicinal-product-name-type SMC}">Zugelassener Arzneimittelname</span></p><h3>Usages</h3><table class="grid"><tr><td style="display: none">-</td><td><b>Country</b></td><td><b>Language</b></td></tr><tr><td style="display: none">*</td><td><span title="Codes:{urn:iso:std:iso:3166 CH}">Switzerland</span></td><td><span title="Codes:{urn:ietf:bcp:47 de-CH}">German (Switzerland)</span></td></tr></table></blockquote></div>
        </text>
        <extension url="http://fhir.ch/ig/ch-epl/StructureDefinition/authorizedDoseForm">
          <valueCodeableConcept>
            <coding>
              <system value="http://standardterms.edqm.eu"/>
              <code value="10221000"/>
              <display value="Film-coated tablet"/>
            </coding>
          </valueCodeableConcept>
        </extension>
        <extension url="http://fhir.ch/ig/ch-epl/StructureDefinition/fullLimitationText">
          <valueString value="Befristete Limitation bis 31.12.2025. PAXLOVID wird als antivirale Monotherapie für die Behandlung einer bestätigten Covid-19 Infektion (Positiver Erregernachweis Antigen/PCR und vorhandener Covid-19-Symptome) in folgenden Fällen vergütet:&#xA; • in einer Dosierung von 300 mg Nirmatrelvir (zwei Tabletten zu je 150 mg) und 100 mg Ritonavir (eine Tablette zu 100 mg) zur gleichzeitigen Einnahme alle 12 Stunden, über einen Zeitraum von 5 Tagen&#xA; • zur Frühbehandlung (ausser bei immunsupprimierten Personen vorzugsweise innerhalb von 5 Tagen nach Symptombeginn) bei Erwachsenen, die keine Sauerstofftherapie oder Hospitalisierung aufgrund von COVID-19 benötigen und für welche gemäss der aktuell gültigen Kriterienliste der Schweizerischen Gesellschaft für Infektiologie (SSI) (https://www.bag.admin.ch/bag/de/home/medizin-und-forschung/heilmittel/versorgung-covid-19-arzneimittel.html) ein erhöhtes Risiko für einen schweren COVID-19-Verlauf besteht."/>
        </extension>
        <identifier>
          <system value="http://SMC.ch/ig/idmp/NamingSystem/IDSystem-ch-MPID"/>
          <value value="CH-7601001010604-6879301"/>
        </identifier>
        <domain>
          <coding>
            <system value="http://spor.ema.europa.eu/v1/lists/100000000004"/>
            <code value="100000000012"/>
            <display value="Human"/>
          </coding>
        </domain>
        <indication value="Paxlovid wird angewendet für die Behandlung der Coronavirus-Krankheit 2019 (COVID-19) bei Erwachsenen, die keine Sauerstofftherapie oder Hospitalisierung aufgrund von COVID-19 benötigen und bei denen ein erhöhtes Risiko für einen schweren Verlauf von COVID-19 besteht (siehe «Klinische Wirksamkeit»).&#xA;Paxlovid ist nicht als Ersatz für eine Impfung gegen COVID-19 vorgesehen. Paxlovid sollte gemäss den offiziellen Empfehlungen und unter Berücksichtigung der lokalen epidemiologischen Daten zu zirkulierenden SARS-CoV-2-Varianten angewendet werden."/>
        <legalStatusOfSupply>
          <coding>
            <system value="http://fhir.ch/ig/ch-epl/CodeSystem/ch-SMC-legal-status-of-supply"/>
            <code value="756005022002"/>
            <display value="Medicinal product subject to medical or veterinary prescription single dispensation (A+)"/>
          </coding>
        </legalStatusOfSupply>
        <additionalMonitoringIndicator>
          <coding>
            <system value="http://fhir.ch/ig/ch-epl/CodeSystem/ch-SMC-additional-monitoring-indicator"/>
            <code value="756005001001"/>
            <display value="Black Triangle Warning"/>
          </coding>
        </additionalMonitoringIndicator>
        <pediatricUseIndicator>
          <coding>
            <system value="http://fhir.ch/ig/ch-epl/CodeSystem/ch-SMC-pediatric-use-indicator"/>
            <code value="756005003002"/>
            <display value="Not authorised for the treatment in children"/>
          </coding>
        </pediatricUseIndicator>
        <classification>
          <coding>
            <system value="http://www.whocc.no/atc"/>
            <code value="J05AE"/>
          </coding>
        </classification>
        <classification>
          <coding>
            <system value="http://fhir.ch/ig/ch-epl/CodeSystem/ch-SMC-authorisation-category"/>
            <code value="756005021001"/>
            <display value="NA KAS art. 12 para. 5 TPLO"/>
          </coding>
        </classification>
        <classification>
          <coding>
            <system value="http://fhir.ch/ig/ch-epl/CodeSystem/ch-SMC-therapeuticproductcode"/>
            <code value="756005004001"/>
            <display value="Synthetic"/>
          </coding>
        </classification>
        <classification>
          <coding>
            <system value="http://fhir.ch/ig/ch-epl/CodeSystem/ch-epl-foph-product-type"/>
            <code value="756001003002"/>
            <display value="Originator product"/>
          </coding>
        </classification>
        <attachedDocument>
          <reference value="DocumentReference/DocRef-FI-Paxlovid"/>
        </attachedDocument>
        <attachedDocument>
          <reference value="DocumentReference/DocRef-PI-Paxlovid"/>
        </attachedDocument>
        <name>
          <productName value="PAXLOVID Filmtabl 4x150mg/2x100mg"/>
          <type>
            <coding>
              <system value="http://fhir.ch/ig/ch-epl/CodeSystem/ch-medicinal-product-name-type"/>
              <code value="SMC"/>
              <display value="Zugelassener Arzneimittelname"/>
            </coding>
          </type>
          <usage>
            <country>
              <coding>
                <system value="urn:iso:std:iso:3166"/>
                <code value="CH"/>
                <display value="Switzerland"/>
              </coding>
            </country>
            <language>
              <coding>
                <system value="urn:ietf:bcp:47"/>
                <code value="de-CH"/>
                <display value="German (Switzerland)"/>
              </coding>
            </language>
          </usage>
        </name>
      </MedicinalProductDefinition>
    </resource>
  </entry>
  <entry>
    <fullUrl value="http://example.org/DocumentReference/DocRef-FI-Paxlovid"/>
    <resource>
      <DocumentReference>
        <id value="DocRef-FI-Paxlovid"/>
        <meta>
          <profile value="http://fhir.ch/ig/ch-epl/StructureDefinition/ch-idmp-documentreference"/>
        </meta>
        <language value="de-CH"/>
        <text>
          <status value="generated"/><div xmlns="http://www.w3.org/1999/xhtml" xml:lang="de-CH" lang="de-CH"><a name="DocumentReference_DocRef-FI-Paxlovid"> </a><p class="res-header-id"><b>Generated Narrative: DocumentReference DocRef-FI-Paxlovid</b></p><a name="DocRef-FI-Paxlovid"> </a><a name="hcDocRef-FI-Paxlovid"> </a><a name="DocRef-FI-Paxlovid-en-US"> </a><div style="display: inline-block; background-color: #d9e0e7; padding: 6px; margin: 4px; border: 1px solid #8da1b4; border-radius: 5px; line-height: 60%"><p style="margin-bottom: 0px">Language: de-CH</p><p style="margin-bottom: 0px">Profile: <a href="StructureDefinition-ch-idmp-documentreference.html">CH IDMP DocumentReference</a></p></div><p><b>identifier</b>: <code>http://SMC.ch/ig/idmp/NamingSystem/IDSystem-ch-AttachmentNumber</code>/123456789-initial submission-Example-nop-123</p><p><b>status</b>: Current</p><p><b>type</b>: <span title="Codes:{http://fhir.ch/ig/ch-epl/CodeSystem/ch-SMC-attached-document-type 756005007001}">Fachinformation</span></p><p><b>date</b>: 2024-07-01 00:00:00+0000</p><blockquote><p><b>content</b></p><h3>Attachments</h3><table class="grid"><tr><td style="display: none">-</td><td><b>Url</b></td></tr><tr><td style="display: none">*</td><td><a href="https://swissmedicinfo.ch/showTextAccepted.aspx?textType=FI&amp;lang=DE&amp;authNr=68793&amp;supportMultipleResults=1">https://swissmedicinfo.ch/showTextAccepted.aspx?textType=FI&amp;lang=DE&amp;authNr=68793&amp;supportMultipleResults=1</a></td></tr></table></blockquote></div>
        </text>
        <identifier>
          <system value="http://SMC.ch/ig/idmp/NamingSystem/IDSystem-ch-AttachmentNumber"/>
          <value value="123456789-initial submission-Example-nop-123"/>
        </identifier>
        <status value="current"/>
        <type>
          <coding>
            <system value="http://fhir.ch/ig/ch-epl/CodeSystem/ch-SMC-attached-document-type"/>
            <code value="756005007001"/>
            <display value="Fachinformation"/>
          </coding>
        </type>
        <date value="2024-07-01T00:00:00Z"/>
        <content>
          <attachment>
            <url value="https://swissmedicinfo.ch/showTextAccepted.aspx?textType=FI&amp;lang=DE&amp;authNr=68793&amp;supportMultipleResults=1"/>
          </attachment>
        </content>
      </DocumentReference>
    </resource>
  </entry>
  <entry>
    <fullUrl value="http://example.org/DocumentReference/DocRef-PI-Paxlovid"/>
    <resource>
      <DocumentReference>
        <id value="DocRef-PI-Paxlovid"/>
        <meta>
          <profile value="http://fhir.ch/ig/ch-epl/StructureDefinition/ch-idmp-documentreference"/>
        </meta>
        <language value="de-CH"/>
        <text>
          <status value="generated"/><div xmlns="http://www.w3.org/1999/xhtml" xml:lang="de-CH" lang="de-CH"><a name="DocumentReference_DocRef-PI-Paxlovid"> </a><p class="res-header-id"><b>Generated Narrative: DocumentReference DocRef-PI-Paxlovid</b></p><a name="DocRef-PI-Paxlovid"> </a><a name="hcDocRef-PI-Paxlovid"> </a><a name="DocRef-PI-Paxlovid-en-US"> </a><div style="display: inline-block; background-color: #d9e0e7; padding: 6px; margin: 4px; border: 1px solid #8da1b4; border-radius: 5px; line-height: 60%"><p style="margin-bottom: 0px">Language: de-CH</p><p style="margin-bottom: 0px">Profile: <a href="StructureDefinition-ch-idmp-documentreference.html">CH IDMP DocumentReference</a></p></div><p><b>identifier</b>: <code>http://SMC.ch/ig/idmp/NamingSystem/IDSystem-ch-AttachmentNumber</code>/123456789-initial submission-Example-nop-321</p><p><b>status</b>: Current</p><p><b>type</b>: <span title="Codes:{http://fhir.ch/ig/ch-epl/CodeSystem/ch-SMC-attached-document-type 756005007002}">Patienteninformation</span></p><p><b>date</b>: 2024-07-01 00:00:00+0000</p><blockquote><p><b>content</b></p><h3>Attachments</h3><table class="grid"><tr><td style="display: none">-</td><td><b>Url</b></td></tr><tr><td style="display: none">*</td><td><a href="https://swissmedicinfo.ch/showTextAccepted.aspx?textType=PI&amp;lang=DE&amp;authNr=68793&amp;supportMultipleResults=1">https://swissmedicinfo.ch/showTextAccepted.aspx?textType=PI&amp;lang=DE&amp;authNr=68793&amp;supportMultipleResults=1</a></td></tr></table></blockquote></div>
        </text>
        <identifier>
          <system value="http://SMC.ch/ig/idmp/NamingSystem/IDSystem-ch-AttachmentNumber"/>
          <value value="123456789-initial submission-Example-nop-321"/>
        </identifier>
        <status value="current"/>
        <type>
          <coding>
            <system value="http://fhir.ch/ig/ch-epl/CodeSystem/ch-SMC-attached-document-type"/>
            <code value="756005007002"/>
            <display value="Patienteninformation"/>
          </coding>
        </type>
        <date value="2024-07-01T00:00:00Z"/>
        <content>
          <attachment>
            <url value="https://swissmedicinfo.ch/showTextAccepted.aspx?textType=PI&amp;lang=DE&amp;authNr=68793&amp;supportMultipleResults=1"/>
          </attachment>
        </content>
      </DocumentReference>
    </resource>
  </entry>
  <entry>
    <fullUrl value="http://example.org/RegulatedAuthorisation/MA-6879301"/>
    <resource>
      <RegulatedAuthorization>
        <id value="MA-6879301"/>
        <meta>
          <profile value="http://fhir.ch/ig/ch-epl/StructureDefinition/ch-idmp-regulatedauthorization"/>
        </meta>
        <text>
          <status value="generated"/><div xmlns="http://www.w3.org/1999/xhtml"><a name="RegulatedAuthorization_MA-6879301"> </a><p class="res-header-id"><b>Generated Narrative: RegulatedAuthorization MA-6879301</b></p><a name="MA-6879301"> </a><a name="hcMA-6879301"> </a><a name="MA-6879301-en-US"> </a><div style="display: inline-block; background-color: #d9e0e7; padding: 6px; margin: 4px; border: 1px solid #8da1b4; border-radius: 5px; line-height: 60%"><p style="margin-bottom: 0px"/><p style="margin-bottom: 0px">Profile: <a href="StructureDefinition-ch-idmp-regulatedauthorization.html">IDMP RegulatedAuthorization</a></p></div><p><b>identifier</b>: <code>http://SMC.ch/ig/idmp/NamingSystem/IDSystem-ch-MarketingAuthorisationNumber</code>/6879301</p><p><b>subject</b>: <a href="MedicinalProductDefinition-Paxlovid-Filmcoatedtablet.html">MedicinalProductDefinition: extension = Film-coated tablet,Befristete Limitation bis 31.12.2025. PAXLOVID wird als antivirale Monotherapie für die Behandlung einer bestätigten Covid-19 Infektion (Positiver Erregernachweis Antigen/PCR und vorhandener Covid-19-Symptome) in folgenden Fällen vergütet:
 • in einer Dosierung von 300 mg Nirmatrelvir (zwei Tabletten zu je 150 mg) und 100 mg Ritonavir (eine Tablette zu 100 mg) zur gleichzeitigen Einnahme alle 12 Stunden, über einen Zeitraum von 5 Tagen
 • zur Frühbehandlung (ausser bei immunsupprimierten Personen vorzugsweise innerhalb von 5 Tagen nach Symptombeginn) bei Erwachsenen, die keine Sauerstofftherapie oder Hospitalisierung aufgrund von COVID-19 benötigen und für welche gemäss der aktuell gültigen Kriterienliste der Schweizerischen Gesellschaft für Infektiologie (SSI) (https://www.bag.admin.ch/bag/de/home/medizin-und-forschung/heilmittel/versorgung-covid-19-arzneimittel.html) ein erhöhtes Risiko für einen schweren COVID-19-Verlauf besteht.; identifier = http://SMC.ch/ig/idmp/NamingSystem/IDSystem-ch-MPID#CH-7601001010604-6879301; domain = Human; indication = Paxlovid wird angewendet für die Behandlung der Coronavirus-Krankheit 2019 (COVID-19) bei Erwachsenen, die keine Sauerstofftherapie oder Hospitalisierung aufgrund von COVID-19 benötigen und bei denen ein erhöhtes Risiko für einen schweren Verlauf von COVID-19 besteht (siehe «Klinische Wirksamkeit»).
Paxlovid ist nicht als Ersatz für eine Impfung gegen COVID-19 vorgesehen. Paxlovid sollte gemäss den offiziellen Empfehlungen und unter Berücksichtigung der lokalen epidemiologischen Daten zu zirkulierenden SARS-CoV-2-Varianten angewendet werden.; legalStatusOfSupply = Medicinal product subject to medical or veterinary prescription single dispensation (A+); additionalMonitoringIndicator = Black Triangle Warning; pediatricUseIndicator = Not authorised for the treatment in children; classification = Protease inhibitors,NA KAS art. 12 para. 5 TPLO,Synthetic,Originator product</a></p><p><b>type</b>: <span title="Codes:{http://fhir.ch/ig/ch-epl/CodeSystem/ch-authorisation-type 756000002001}">Marketing Authorisation</span></p><p><b>region</b>: <span title="Codes:{urn:iso:std:iso:3166 CH}">Switzerland</span></p><p><b>status</b>: <span title="Codes:{http://fhir.ch/ig/ch-epl/CodeSystem/ch-SMC-authorisation-status 756005023002}">limited authorisation</span></p><p><b>statusDate</b>: 2022-06-15</p><p><b>holder</b>: <a href="#hcMA-6879301/holder-Pfizer-AG">Organization Pfizer AG</a></p><p><b>regulator</b>: <a href="#hcMA-6879301/regulator-SMC">Organization SMC</a></p><hr/><blockquote><p class="res-header-id"><b>Generated Narrative: Organization #holder-Pfizer-AG</b></p><a name="MA-6879301/holder-Pfizer-AG"> </a><a name="hcMA-6879301/holder-Pfizer-AG"> </a><a name="MA-6879301/holder-Pfizer-AG-en-US"> </a><div style="display: inline-block; background-color: #d9e0e7; padding: 6px; margin: 4px; border: 1px solid #8da1b4; border-radius: 5px; line-height: 60%"><p style="margin-bottom: 0px"/><p style="margin-bottom: 0px">Profile: <a href="StructureDefinition-ch-epl-organization.html">CH EPL Organization</a></p></div><p><b>identifier</b>: <a href="NamingSystem-LOC.html" title="Identifier holding a number for LocID (Location Identifier of the European Medicines Agency - Organisation Management System OMS)">LOC Identifier</a>/100015286, <a href="NamingSystem-GLN.html" title="Identifier holding a number for GLN (Global Location Number)">GLN Identifier</a>/7601001010604</p><p><b>name</b>: Pfizer AG</p></blockquote><hr/><blockquote><p class="res-header-id"><b>Generated Narrative: Organization #regulator-SMC</b></p><a name="MA-6879301/regulator-SMC"> </a><a name="hcMA-6879301/regulator-SMC"> </a><a name="MA-6879301/regulator-SMC-en-US"> </a><div style="display: inline-block; background-color: #d9e0e7; padding: 6px; margin: 4px; border: 1px solid #8da1b4; border-radius: 5px; line-height: 60%"><p style="margin-bottom: 0px"/><p style="margin-bottom: 0px">Profile: <a href="StructureDefinition-ch-epl-organization.html">CH EPL Organization</a></p></div><p><b>identifier</b>: <a href="NamingSystem-LOC.html" title="Identifier holding a number for LocID (Location Identifier of the European Medicines Agency - Organisation Management System OMS)">LOC Identifier</a>/100010911, <a href="NamingSystem-GLN.html" title="Identifier holding a number for GLN (Global Location Number)">GLN Identifier</a>/7601001398511</p><p><b>name</b>: SMC</p></blockquote></div>
        </text>
        <contained>
          <Organization>
            <id value="holder-Pfizer-AG"/>
            <meta>
              <profile value="http://fhir.ch/ig/ch-epl/StructureDefinition/ch-epl-organization"/>
            </meta>
            <identifier>
              <system value="urn:oid:1.2.276.0.76"/>
              <value value="100015286"/>
            </identifier>
            <identifier>
              <system value="urn:oid:2.51.1.3"/>
              <value value="7601001010604"/>
            </identifier>
            <name value="Pfizer AG"/>
          </Organization>
        </contained>
        <contained>
          <Organization>
            <id value="regulator-SMC"/>
            <meta>
              <profile value="http://fhir.ch/ig/ch-epl/StructureDefinition/ch-epl-organization"/>
            </meta>
            <identifier>
              <system value="urn:oid:1.2.276.0.76"/>
              <value value="100010911"/>
            </identifier>
            <identifier>
              <system value="urn:oid:2.51.1.3"/>
              <value value="7601001398511"/>
            </identifier>
            <name value="SMC"/>
          </Organization>
        </contained>
        <identifier>
          <system value="http://SMC.ch/ig/idmp/NamingSystem/IDSystem-ch-MarketingAuthorisationNumber"/>
          <value value="6879301"/>
        </identifier>
        <subject>
          <reference value="MedicinalProductDefinition/Paxlovid-Filmcoatedtablet"/>
        </subject>
        <type>
          <coding>
            <system value="http://fhir.ch/ig/ch-epl/CodeSystem/ch-authorisation-type"/>
            <code value="756000002001"/>
            <display value="Marketing Authorisation"/>
          </coding>
        </type>
        <region>
          <coding>
            <system value="urn:iso:std:iso:3166"/>
            <code value="CH"/>
            <display value="Switzerland"/>
          </coding>
        </region>
        <status>
          <coding>
            <system value="http://fhir.ch/ig/ch-epl/CodeSystem/ch-SMC-authorisation-status"/>
            <code value="756005023002"/>
            <display value="limited authorisation"/>
          </coding>
        </status>
        <statusDate value="2022-06-15"/>
        <holder>
          <reference value="#holder-Pfizer-AG"/>
        </holder>
        <regulator>
          <reference value="#regulator-SMC"/>
        </regulator>
      </RegulatedAuthorization>
    </resource>
  </entry>
  <entry>
    <fullUrl value="http://example.org/PackagedProductDefinition/PMP-Paxlovid-Filmcoatedtablet"/>
    <resource>
      <PackagedProductDefinition>
        <id value="PMP-Paxlovid-Filmcoatedtablet"/>
        <meta>
          <profile value="http://fhir.ch/ig/ch-epl/StructureDefinition/ch-idmp-packagedproductdefinition"/>
        </meta>
        <text>
          <status value="generated"/><div xmlns="http://www.w3.org/1999/xhtml"><a name="PackagedProductDefinition_PMP-Paxlovid-Filmcoatedtablet"> </a><p class="res-header-id"><b>Generated Narrative: PackagedProductDefinition PMP-Paxlovid-Filmcoatedtablet</b></p><a name="PMP-Paxlovid-Filmcoatedtablet"> </a><a name="hcPMP-Paxlovid-Filmcoatedtablet"> </a><a name="PMP-Paxlovid-Filmcoatedtablet-en-US"> </a><div style="display: inline-block; background-color: #d9e0e7; padding: 6px; margin: 4px; border: 1px solid #8da1b4; border-radius: 5px; line-height: 60%"><p style="margin-bottom: 0px"/><p style="margin-bottom: 0px">Profile: <a href="StructureDefinition-ch-idmp-packagedproductdefinition.html">IDMP PackagedProductDefinition</a></p></div><p><b>identifier</b>: <code>http://SMC.ch/ig/idmp/NamingSystem/IDSystem-ch-PCID</code>/CH-7601001010604-6879301-001</p><p><b>packageFor</b>: <a href="MedicinalProductDefinition-Paxlovid-Filmcoatedtablet.html">MedicinalProductDefinition: extension = Film-coated tablet,Befristete Limitation bis 31.12.2025. PAXLOVID wird als antivirale Monotherapie für die Behandlung einer bestätigten Covid-19 Infektion (Positiver Erregernachweis Antigen/PCR und vorhandener Covid-19-Symptome) in folgenden Fällen vergütet:
 • in einer Dosierung von 300 mg Nirmatrelvir (zwei Tabletten zu je 150 mg) und 100 mg Ritonavir (eine Tablette zu 100 mg) zur gleichzeitigen Einnahme alle 12 Stunden, über einen Zeitraum von 5 Tagen
 • zur Frühbehandlung (ausser bei immunsupprimierten Personen vorzugsweise innerhalb von 5 Tagen nach Symptombeginn) bei Erwachsenen, die keine Sauerstofftherapie oder Hospitalisierung aufgrund von COVID-19 benötigen und für welche gemäss der aktuell gültigen Kriterienliste der Schweizerischen Gesellschaft für Infektiologie (SSI) (https://www.bag.admin.ch/bag/de/home/medizin-und-forschung/heilmittel/versorgung-covid-19-arzneimittel.html) ein erhöhtes Risiko für einen schweren COVID-19-Verlauf besteht.; identifier = http://SMC.ch/ig/idmp/NamingSystem/IDSystem-ch-MPID#CH-7601001010604-6879301; domain = Human; indication = Paxlovid wird angewendet für die Behandlung der Coronavirus-Krankheit 2019 (COVID-19) bei Erwachsenen, die keine Sauerstofftherapie oder Hospitalisierung aufgrund von COVID-19 benötigen und bei denen ein erhöhtes Risiko für einen schweren Verlauf von COVID-19 besteht (siehe «Klinische Wirksamkeit»).
Paxlovid ist nicht als Ersatz für eine Impfung gegen COVID-19 vorgesehen. Paxlovid sollte gemäss den offiziellen Empfehlungen und unter Berücksichtigung der lokalen epidemiologischen Daten zu zirkulierenden SARS-CoV-2-Varianten angewendet werden.; legalStatusOfSupply = Medicinal product subject to medical or veterinary prescription single dispensation (A+); additionalMonitoringIndicator = Black Triangle Warning; pediatricUseIndicator = Not authorised for the treatment in children; classification = Protease inhibitors,NA KAS art. 12 para. 5 TPLO,Synthetic,Originator product</a></p><p><b>containedItemQuantity</b>: 30 Tablet<span style="background: LightGoldenRodYellow"> (Details: EDQM - Standard Terms  code15054000 = 'Tablet')</span></p><p><b>description</b>: </p><div><p>PAXLOVID Filmtabl 4x150mg/2x100mg</p>
</div><h3>LegalStatusOfSupplies</h3><table class="grid"><tr><td style="display: none">-</td><td><b>Code</b></td></tr><tr><td style="display: none">*</td><td><span title="Codes:{http://fhir.ch/ig/ch-epl/CodeSystem/ch-SMC-legal-status-of-supply 756005022002}">Medicinal product subject to medical or veterinary prescription single dispensation (A+)</span></td></tr></table><blockquote><p><b>packaging</b></p><p><b>identifier</b>: <a href="NamingSystem-GTIN.html" title="GS1 defines trade items as products or services that are priced, ordered or invoiced at any point in the supply chain.">Global Trade Item Number</a>/7680687930017</p><p><b>type</b>: <span title="Codes:{http://standardterms.edqm.eu 30009000}">Box</span></p><p><b>quantity</b>: 1</p><h3>ShelfLifeStorages</h3><table class="grid"><tr><td style="display: none">-</td><td><b>Type</b></td><td><b>SpecialPrecautionsForStorage</b></td></tr><tr><td style="display: none">*</td><td><span title="Codes:{http://spor.ema.europa.eu/v1/lists/100000073343 100000073403}">Shelf life of the medicinal product as packaged for sale</span></td><td><span title="Codes:{http://fhir.ch/ig/ch-epl/CodeSystem/ch-SMC-special-precautions-for-storage 756005042001}">Do not freeze</span></td></tr></table></blockquote></div>
        </text>
        <identifier>
          <system value="http://SMC.ch/ig/idmp/NamingSystem/IDSystem-ch-PCID"/>
          <value value="CH-7601001010604-6879301-001"/>
        </identifier>
        <packageFor>
          <reference value="MedicinalProductDefinition/Paxlovid-Filmcoatedtablet"/>
        </packageFor>
        <containedItemQuantity>
          <value value="30"/>
          <unit value="Tablet"/>
          <system value="http://standardterms.edqm.eu"/>
          <code value="15054000"/>
        </containedItemQuantity>
        <description value="PAXLOVID Filmtabl 4x150mg/2x100mg"/>
        <legalStatusOfSupply>
          <code>
            <coding>
              <system value="http://fhir.ch/ig/ch-epl/CodeSystem/ch-SMC-legal-status-of-supply"/>
              <code value="756005022002"/>
              <display value="Medicinal product subject to medical or veterinary prescription single dispensation (A+)"/>
            </coding>
          </code>
        </legalStatusOfSupply>
        <packaging>
          <identifier>
            <system value="urn:oid:2.51.1.1"/>
            <value value="7680687930017"/>
          </identifier>
          <type>
            <coding>
              <system value="http://standardterms.edqm.eu"/>
              <code value="30009000"/>
              <display value="Box"/>
            </coding>
          </type>
          <quantity value="1"/>
          <shelfLifeStorage>
            <type>
              <coding>
                <system value="http://spor.ema.europa.eu/v1/lists/100000073343"/>
                <code value="100000073403"/>
                <display value="Shelf life of the medicinal product as packaged for sale"/>
              </coding>
            </type>
            <specialPrecautionsForStorage>
              <coding>
                <system value="http://fhir.ch/ig/ch-epl/CodeSystem/ch-SMC-special-precautions-for-storage"/>
                <code value="756005042001"/>
                <display value="Do not freeze"/>
              </coding>
            </specialPrecautionsForStorage>
          </shelfLifeStorage>
        </packaging>
      </PackagedProductDefinition>
    </resource>
  </entry>
  <entry>
    <fullUrl value="http://example.org/RegulatedAuthorisation/MA-68793001"/>
    <resource>
      <RegulatedAuthorization>
        <id value="MA-68793001"/>
        <meta>
          <profile value="http://fhir.ch/ig/ch-epl/StructureDefinition/ch-idmp-regulatedauthorization"/>
        </meta>
        <text>
          <status value="generated"/><div xmlns="http://www.w3.org/1999/xhtml"><a name="RegulatedAuthorization_MA-68793001"> </a><p class="res-header-id"><b>Generated Narrative: RegulatedAuthorization MA-68793001</b></p><a name="MA-68793001"> </a><a name="hcMA-68793001"> </a><a name="MA-68793001-en-US"> </a><div style="display: inline-block; background-color: #d9e0e7; padding: 6px; margin: 4px; border: 1px solid #8da1b4; border-radius: 5px; line-height: 60%"><p style="margin-bottom: 0px"/><p style="margin-bottom: 0px">Profile: <a href="StructureDefinition-ch-idmp-regulatedauthorization.html">IDMP RegulatedAuthorization</a></p></div><p><b>identifier</b>: <code>http://SMC.ch/ig/idmp/NamingSystem/IDSystem-ch-MarketingAuthorisationNumber</code>/68793001</p><p><b>subject</b>: <a href="MedicinalProductDefinition-Paxlovid-Filmcoatedtablet.html">MedicinalProductDefinition: extension = Film-coated tablet,Befristete Limitation bis 31.12.2025. PAXLOVID wird als antivirale Monotherapie für die Behandlung einer bestätigten Covid-19 Infektion (Positiver Erregernachweis Antigen/PCR und vorhandener Covid-19-Symptome) in folgenden Fällen vergütet:
 • in einer Dosierung von 300 mg Nirmatrelvir (zwei Tabletten zu je 150 mg) und 100 mg Ritonavir (eine Tablette zu 100 mg) zur gleichzeitigen Einnahme alle 12 Stunden, über einen Zeitraum von 5 Tagen
 • zur Frühbehandlung (ausser bei immunsupprimierten Personen vorzugsweise innerhalb von 5 Tagen nach Symptombeginn) bei Erwachsenen, die keine Sauerstofftherapie oder Hospitalisierung aufgrund von COVID-19 benötigen und für welche gemäss der aktuell gültigen Kriterienliste der Schweizerischen Gesellschaft für Infektiologie (SSI) (https://www.bag.admin.ch/bag/de/home/medizin-und-forschung/heilmittel/versorgung-covid-19-arzneimittel.html) ein erhöhtes Risiko für einen schweren COVID-19-Verlauf besteht.; identifier = http://SMC.ch/ig/idmp/NamingSystem/IDSystem-ch-MPID#CH-7601001010604-6879301; domain = Human; indication = Paxlovid wird angewendet für die Behandlung der Coronavirus-Krankheit 2019 (COVID-19) bei Erwachsenen, die keine Sauerstofftherapie oder Hospitalisierung aufgrund von COVID-19 benötigen und bei denen ein erhöhtes Risiko für einen schweren Verlauf von COVID-19 besteht (siehe «Klinische Wirksamkeit»).
Paxlovid ist nicht als Ersatz für eine Impfung gegen COVID-19 vorgesehen. Paxlovid sollte gemäss den offiziellen Empfehlungen und unter Berücksichtigung der lokalen epidemiologischen Daten zu zirkulierenden SARS-CoV-2-Varianten angewendet werden.; legalStatusOfSupply = Medicinal product subject to medical or veterinary prescription single dispensation (A+); additionalMonitoringIndicator = Black Triangle Warning; pediatricUseIndicator = Not authorised for the treatment in children; classification = Protease inhibitors,NA KAS art. 12 para. 5 TPLO,Synthetic,Originator product</a></p><p><b>type</b>: <span title="Codes:{http://fhir.ch/ig/ch-epl/CodeSystem/ch-authorisation-type 756000002001}">Marketing Authorisation</span></p><p><b>region</b>: <span title="Codes:{urn:iso:std:iso:3166 CH}">Switzerland</span></p><p><b>status</b>: <span title="Codes:{http://fhir.ch/ig/ch-epl/CodeSystem/ch-SMC-authorisation-status 756005023002}">limited authorisation</span></p><p><b>statusDate</b>: 2022-06-15</p><p><b>holder</b>: <a href="#hcMA-68793001/holder-Pfizer-AG">Organization Pfizer AG</a></p><p><b>regulator</b>: <a href="#hcMA-68793001/regulator-SMC">Organization SMC</a></p><hr/><blockquote><p class="res-header-id"><b>Generated Narrative: Organization #holder-Pfizer-AG</b></p><a name="MA-68793001/holder-Pfizer-AG"> </a><a name="hcMA-68793001/holder-Pfizer-AG"> </a><a name="MA-68793001/holder-Pfizer-AG-en-US"> </a><div style="display: inline-block; background-color: #d9e0e7; padding: 6px; margin: 4px; border: 1px solid #8da1b4; border-radius: 5px; line-height: 60%"><p style="margin-bottom: 0px"/><p style="margin-bottom: 0px">Profile: <a href="StructureDefinition-ch-epl-organization.html">CH EPL Organization</a></p></div><p><b>identifier</b>: <a href="NamingSystem-LOC.html" title="Identifier holding a number for LocID (Location Identifier of the European Medicines Agency - Organisation Management System OMS)">LOC Identifier</a>/100015286, <a href="NamingSystem-GLN.html" title="Identifier holding a number for GLN (Global Location Number)">GLN Identifier</a>/7601001010604</p><p><b>name</b>: Pfizer AG</p></blockquote><hr/><blockquote><p class="res-header-id"><b>Generated Narrative: Organization #regulator-SMC</b></p><a name="MA-68793001/regulator-SMC"> </a><a name="hcMA-68793001/regulator-SMC"> </a><a name="MA-68793001/regulator-SMC-en-US"> </a><div style="display: inline-block; background-color: #d9e0e7; padding: 6px; margin: 4px; border: 1px solid #8da1b4; border-radius: 5px; line-height: 60%"><p style="margin-bottom: 0px"/><p style="margin-bottom: 0px">Profile: <a href="StructureDefinition-ch-epl-organization.html">CH EPL Organization</a></p></div><p><b>identifier</b>: <a href="NamingSystem-LOC.html" title="Identifier holding a number for LocID (Location Identifier of the European Medicines Agency - Organisation Management System OMS)">LOC Identifier</a>/100010911, <a href="NamingSystem-GLN.html" title="Identifier holding a number for GLN (Global Location Number)">GLN Identifier</a>/7601001398511</p><p><b>name</b>: SMC</p></blockquote></div>
        </text>
        <contained>
          <Organization>
            <id value="holder-Pfizer-AG"/>
            <meta>
              <profile value="http://fhir.ch/ig/ch-epl/StructureDefinition/ch-epl-organization"/>
            </meta>
            <identifier>
              <system value="urn:oid:1.2.276.0.76"/>
              <value value="100015286"/>
            </identifier>
            <identifier>
              <system value="urn:oid:2.51.1.3"/>
              <value value="7601001010604"/>
            </identifier>
            <name value="Pfizer AG"/>
          </Organization>
        </contained>
        <contained>
          <Organization>
            <id value="regulator-SMC"/>
            <meta>
              <profile value="http://fhir.ch/ig/ch-epl/StructureDefinition/ch-epl-organization"/>
            </meta>
            <identifier>
              <system value="urn:oid:1.2.276.0.76"/>
              <value value="100010911"/>
            </identifier>
            <identifier>
              <system value="urn:oid:2.51.1.3"/>
              <value value="7601001398511"/>
            </identifier>
            <name value="SMC"/>
          </Organization>
        </contained>
        <identifier>
          <system value="http://SMC.ch/ig/idmp/NamingSystem/IDSystem-ch-MarketingAuthorisationNumber"/>
          <value value="68793001"/>
        </identifier>
        <subject>
          <reference value="MedicinalProductDefinition/Paxlovid-Filmcoatedtablet"/>
        </subject>
        <type>
          <coding>
            <system value="http://fhir.ch/ig/ch-epl/CodeSystem/ch-authorisation-type"/>
            <code value="756000002001"/>
            <display value="Marketing Authorisation"/>
          </coding>
        </type>
        <region>
          <coding>
            <system value="urn:iso:std:iso:3166"/>
            <code value="CH"/>
            <display value="Switzerland"/>
          </coding>
        </region>
        <status>
          <coding>
            <system value="http://fhir.ch/ig/ch-epl/CodeSystem/ch-SMC-authorisation-status"/>
            <code value="756005023002"/>
            <display value="limited authorisation"/>
          </coding>
        </status>
        <statusDate value="2022-06-15"/>
        <holder>
          <reference value="#holder-Pfizer-AG"/>
        </holder>
        <regulator>
          <reference value="#regulator-SMC"/>
        </regulator>
      </RegulatedAuthorization>
    </resource>
  </entry>
  <entry>
    <fullUrl value="http://example.org/RegulatedAuthorisation/FOPH-21529"/>
    <resource>
      <RegulatedAuthorization>
        <id value="FOPH-21529"/>
        <text>
          <status value="extensions"/><div xmlns="http://www.w3.org/1999/xhtml"><a name="RegulatedAuthorization_FOPH-21529"> </a><p class="res-header-id"><b>Generated Narrative: RegulatedAuthorization FOPH-21529</b></p><a name="FOPH-21529"> </a><a name="hcFOPH-21529"> </a><a name="FOPH-21529-en-US"> </a><blockquote><p><b>CH - EPL Reimbursement SL</b></p><ul><li>FOPHDossierNumber: <a href="NamingSystem-Dossier.html" title="Identifier holding the Dossier number of FOPH">FOPH Dossier Number</a>/21529</li><li>status: <span title="Codes:{http://fhir.ch/ig/ch-epl/CodeSystem/ch-epl-foph-reimbursement-status 756001021001}">Reimbursed</span></li><li>statusDate: 2023-12-01</li><li>expiryDate: 2026-03-31</li><li>listingStatus: <span title="Codes:{http://fhir.ch/ig/ch-epl/CodeSystem/ch-epl-foph-listing-status 756001002001}">Listed</span></li><li>listingPeriod: 2023-12-01 --&gt; 2025-12-31</li><li>firstListingDate: 2023-12-01</li><li>costShare: 10</li><li>gamme: <span title="Codes:{http://fhir.ch/ig/ch-epl/CodeSystem/ch-epl-foph-gamme 756002004001}">Oral</span></li></ul></blockquote><blockquote><p><b>CH - EPL Product Price</b></p><ul><li>value: <span title="Swiss Franc">CHF958.62</span> (CHF)</li><li>type: <span title="Codes:{http://fhir.ch/ig/ch-epl/CodeSystem/ch-epl-foph-price-type 756002005002}">Ex-factory price</span></li><li>changeType: <span title="Codes:{http://fhir.ch/ig/ch-epl/CodeSystem/ch-epl-foph-type-of-price-change 756002006007}">Price mutation after triennal review of pharmaceuticals</span></li><li>changeDate: 2023-12-01</li></ul></blockquote><blockquote><p><b>CH - EPL Product Price</b></p><ul><li>value: <span title="Swiss Franc">CHF1,113.95</span> (CHF)</li><li>type: <span title="Codes:{http://fhir.ch/ig/ch-epl/CodeSystem/ch-epl-foph-price-type 756002005001}">Retail price</span></li><li>changeType: <span title="Codes:{http://fhir.ch/ig/ch-epl/CodeSystem/ch-epl-foph-type-of-price-change 756002006005}">VAT-change</span></li><li>changeDate: 2024-01-01</li></ul></blockquote><p><b>subject</b>: <a href="PackagedProductDefinition-PMP-Paxlovid-Filmcoatedtablet.html">PackagedProductDefinition: identifier = http://SMC.ch/ig/idmp/NamingSystem/IDSystem-ch-PCID#CH-7601001010604-6879301-001; containedItemQuantity = 30 Tablet; description = PAXLOVID Filmtabl 4x150mg/2x100mg</a></p><p><b>type</b>: <span title="Codes:{http://fhir.ch/ig/ch-epl/CodeSystem/ch-authorisation-type 756000002003}">Reimbursement SL</span></p><h3>Indications</h3><table class="grid"><tr><td style="display: none">-</td><td><b>Extension</b></td><td><b>Reference</b></td></tr><tr><td style="display: none">*</td><td/><td><a href="ClinicalUseDefinition-IND-10084529.html">ClinicalUseDefinition: type = indication</a></td></tr></table><p><b>holder</b>: <a href="#hcFOPH-21529/holder-Pfizer-AG">Organization Pfizer AG</a></p><hr/><blockquote><p class="res-header-id"><b>Generated Narrative: Organization #holder-Pfizer-AG</b></p><a name="FOPH-21529/holder-Pfizer-AG"> </a><a name="hcFOPH-21529/holder-Pfizer-AG"> </a><a name="FOPH-21529/holder-Pfizer-AG-en-US"> </a><div style="display: inline-block; background-color: #d9e0e7; padding: 6px; margin: 4px; border: 1px solid #8da1b4; border-radius: 5px; line-height: 60%"><p style="margin-bottom: 0px"/><p style="margin-bottom: 0px">Profile: <a href="StructureDefinition-ch-epl-organization.html">CH EPL Organization</a></p></div><p><b>identifier</b>: <a href="NamingSystem-LOC.html" title="Identifier holding a number for LocID (Location Identifier of the European Medicines Agency - Organisation Management System OMS)">LOC Identifier</a>/100015286, <a href="NamingSystem-GLN.html" title="Identifier holding a number for GLN (Global Location Number)">GLN Identifier</a>/7601001010604</p><p><b>name</b>: Pfizer AG</p></blockquote></div>
        </text>
        <contained>
          <Organization>
            <id value="holder-Pfizer-AG"/>
            <meta>
              <profile value="http://fhir.ch/ig/ch-epl/StructureDefinition/ch-epl-organization"/>
            </meta>
            <identifier>
              <system value="urn:oid:1.2.276.0.76"/>
              <value value="100015286"/>
            </identifier>
            <identifier>
              <system value="urn:oid:2.51.1.3"/>
              <value value="7601001010604"/>
            </identifier>
            <name value="Pfizer AG"/>
          </Organization>
        </contained>
        <extension url="http://fhir.ch/ig/ch-epl/StructureDefinition/reimbursementSL">
          <extension url="FOPHDossierNumber">
            <valueIdentifier>
              <system value="urn:oid:2.16.756.1"/>
              <value value="21529"/>
            </valueIdentifier>
          </extension>
          <extension url="status">
            <valueCodeableConcept>
              <coding>
                <system value="http://fhir.ch/ig/ch-epl/CodeSystem/ch-epl-foph-reimbursement-status"/>
                <code value="756001021001"/>
                <display value="Reimbursed"/>
              </coding>
            </valueCodeableConcept>
          </extension>
          <extension url="statusDate">
            <valueDate value="2023-12-01"/>
          </extension>
          <extension url="expiryDate">
            <valueDate value="2026-03-31"/>
          </extension>
          <extension url="listingStatus">
            <valueCodeableConcept>
              <coding>
                <system value="http://fhir.ch/ig/ch-epl/CodeSystem/ch-epl-foph-listing-status"/>
                <code value="756001002001"/>
                <display value="Listed"/>
              </coding>
            </valueCodeableConcept>
          </extension>
          <extension url="listingPeriod">
            <valuePeriod>
              <start value="2023-12-01"/>
              <end value="2025-12-31"/>
            </valuePeriod>
          </extension>
          <extension url="firstListingDate">
            <valueDate value="2023-12-01"/>
          </extension>
          <extension url="costShare">
            <valueInteger value="10"/>
          </extension>
          <extension url="gamme">
            <valueCodeableConcept>
              <coding>
                <system value="http://fhir.ch/ig/ch-epl/CodeSystem/ch-epl-foph-gamme"/>
                <code value="756002004001"/>
                <display value="Oral"/>
              </coding>
            </valueCodeableConcept>
          </extension>
        </extension>
        <extension url="http://fhir.ch/ig/ch-epl/StructureDefinition/productPrice">
          <extension url="value">
            <valueMoney>
              <value value="958.62"/>
              <currency value="CHF"/>
            </valueMoney>
          </extension>
          <extension url="type">
            <valueCodeableConcept>
              <coding>
                <system value="http://fhir.ch/ig/ch-epl/CodeSystem/ch-epl-foph-price-type"/>
                <code value="756002005002"/>
                <display value="Ex-factory price"/>
              </coding>
            </valueCodeableConcept>
          </extension>
          <extension url="changeType">
            <valueCodeableConcept>
              <coding>
                <system value="http://fhir.ch/ig/ch-epl/CodeSystem/ch-epl-foph-type-of-price-change"/>
                <code value="756002006007"/>
                <display value="Price mutation after triennal review of pharmaceuticals"/>
              </coding>
            </valueCodeableConcept>
          </extension>
          <extension url="changeDate">
            <valueDate value="2023-12-01"/>
          </extension>
        </extension>
        <extension url="http://fhir.ch/ig/ch-epl/StructureDefinition/productPrice">
          <extension url="value">
            <valueMoney>
              <value value="1113.95"/>
              <currency value="CHF"/>
            </valueMoney>
          </extension>
          <extension url="type">
            <valueCodeableConcept>
              <coding>
                <system value="http://fhir.ch/ig/ch-epl/CodeSystem/ch-epl-foph-price-type"/>
                <code value="756002005001"/>
                <display value="Retail price"/>
              </coding>
            </valueCodeableConcept>
          </extension>
          <extension url="changeType">
            <valueCodeableConcept>
              <coding>
                <system value="http://fhir.ch/ig/ch-epl/CodeSystem/ch-epl-foph-type-of-price-change"/>
                <code value="756002006005"/>
                <display value="VAT-change"/>
              </coding>
            </valueCodeableConcept>
          </extension>
          <extension url="changeDate">
            <valueDate value="2024-01-01"/>
          </extension>
        </extension>
        <subject>
          <reference value="PackagedProductDefinition/PMP-Paxlovid-Filmcoatedtablet"/>
        </subject>
        <type>
          <coding>
            <system value="http://fhir.ch/ig/ch-epl/CodeSystem/ch-authorisation-type"/>
            <code value="756000002003"/>
            <display value="Reimbursement SL"/>
          </coding>
        </type>
        <indication>
          <extension url="http://fhir.ch/ig/ch-epl/StructureDefinition/regulatedAuthorization-limitation">
            <extension url="status">
              <valueCodeableConcept>
                <coding>
                  <system value="http://fhir.ch/ig/ch-epl/CodeSystem/ch-epl-foph-limitationstatus"/>
                  <code value="756002071001"/>
                  <display value="Limitation Reimbursed"/>
                </coding>
              </valueCodeableConcept>
            </extension>
            <extension url="statusDate">
              <valueDate value="2023-12-01"/>
            </extension>
            <extension url="period">
              <valuePeriod>
                <start value="2023-12-01"/>
                <end value="2025-12-31"/>
              </valuePeriod>
            </extension>
            <extension url="reimbursementEndDate">
              <valueDate value="2026-03-31"/>
            </extension>
            <extension url="firstLimitationDate">
              <valueDate value="2023-12-01"/>
            </extension>
            <extension url="limitationIndication">
              <valueReference>
                <reference value="ClinicalUseDefinition/LIM-840539006"/>
              </valueReference>
            </extension>
            <extension url="http://fhir.ch/ig/ch-epl/StructureDefinition/productPrice">
              <extension url="value">
                <valueMoney>
                  <value value="958.62"/>
                  <currency value="CHF"/>
                </valueMoney>
              </extension>
              <extension url="type">
                <valueCodeableConcept>
                  <coding>
                    <system value="http://fhir.ch/ig/ch-epl/CodeSystem/ch-epl-foph-price-type"/>
                    <code value="756002005002"/>
                    <display value="Ex-factory price"/>
                  </coding>
                </valueCodeableConcept>
              </extension>
              <extension url="changeType">
                <valueCodeableConcept>
                  <coding>
                    <system value="http://fhir.ch/ig/ch-epl/CodeSystem/ch-epl-foph-type-of-price-change"/>
                    <code value="756002006007"/>
                    <display value="Price mutation after triennal review of pharmaceuticals"/>
                  </coding>
                </valueCodeableConcept>
              </extension>
              <extension url="changeDate">
                <valueDate value="2023-12-01"/>
              </extension>
            </extension>
            <extension url="http://fhir.ch/ig/ch-epl/StructureDefinition/productPrice">
              <extension url="value">
                <valueMoney>
                  <value value="1113.95"/>
                  <currency value="CHF"/>
                </valueMoney>
              </extension>
              <extension url="type">
                <valueCodeableConcept>
                  <coding>
                    <system value="http://fhir.ch/ig/ch-epl/CodeSystem/ch-epl-foph-price-type"/>
                    <code value="756002005001"/>
                    <display value="Retail price"/>
                  </coding>
                </valueCodeableConcept>
              </extension>
              <extension url="changeType">
                <valueCodeableConcept>
                  <coding>
                    <system value="http://fhir.ch/ig/ch-epl/CodeSystem/ch-epl-foph-type-of-price-change"/>
                    <code value="756002006005"/>
                    <display value="VAT-change"/>
                  </coding>
                </valueCodeableConcept>
              </extension>
              <extension url="changeDate">
                <valueDate value="2024-01-01"/>
              </extension>
            </extension>
          </extension>
          <reference>
            <reference value="ClinicalUseDefinition/IND-10084529"/>
          </reference>
        </indication>
        <holder>
          <reference value="#holder-Pfizer-AG"/>
        </holder>
      </RegulatedAuthorization>
    </resource>
  </entry>
  <entry>
    <fullUrl value="http://example.org/ManufacturedItemDefinition/MI-Nirmatrelvir-150mg"/>
    <resource>
      <ManufacturedItemDefinition>
        <id value="MI-Nirmatrelvir-150mg"/>
        <meta>
          <profile value="http://fhir.ch/ig/ch-epl/StructureDefinition/ch-idmp-manufactureditemdefinition"/>
        </meta>
        <text>
          <status value="generated"/><div xmlns="http://www.w3.org/1999/xhtml"><a name="ManufacturedItemDefinition_MI-Nirmatrelvir-150mg"> </a><p class="res-header-id"><b>Generated Narrative: ManufacturedItemDefinition MI-Nirmatrelvir-150mg</b></p><a name="MI-Nirmatrelvir-150mg"> </a><a name="hcMI-Nirmatrelvir-150mg"> </a><a name="MI-Nirmatrelvir-150mg-en-US"> </a><div style="display: inline-block; background-color: #d9e0e7; padding: 6px; margin: 4px; border: 1px solid #8da1b4; border-radius: 5px; line-height: 60%"><p style="margin-bottom: 0px"/><p style="margin-bottom: 0px">Profile: <a href="StructureDefinition-ch-idmp-manufactureditemdefinition.html">CH IDMP ManufacturedItemDefinition</a></p></div><p><b>status</b>: Active</p><p><b>manufacturedDoseForm</b>: <span title="Codes:{http://standardterms.edqm.eu 10221000}">Film-coated tablet</span></p><p><b>unitOfPresentation</b>: <span title="Codes:{http://standardterms.edqm.eu 15054000}">Tablet</span></p></div>
        </text>
        <status value="active"/>
        <manufacturedDoseForm>
          <coding>
            <system value="http://standardterms.edqm.eu"/>
            <code value="10221000"/>
            <display value="Film-coated tablet"/>
          </coding>
        </manufacturedDoseForm>
        <unitOfPresentation>
          <coding>
            <system value="http://standardterms.edqm.eu"/>
            <code value="15054000"/>
            <display value="Tablet"/>
          </coding>
        </unitOfPresentation>
      </ManufacturedItemDefinition>
    </resource>
  </entry>
  <entry>
    <fullUrl value="http://example.org/ManufacturedItemDefinition/MI-Ritonavirum-100mg"/>
    <resource>
      <ManufacturedItemDefinition>
        <id value="MI-Ritonavirum-100mg"/>
        <meta>
          <profile value="http://fhir.ch/ig/ch-epl/StructureDefinition/ch-idmp-manufactureditemdefinition"/>
        </meta>
        <text>
          <status value="generated"/><div xmlns="http://www.w3.org/1999/xhtml"><a name="ManufacturedItemDefinition_MI-Ritonavirum-100mg"> </a><p class="res-header-id"><b>Generated Narrative: ManufacturedItemDefinition MI-Ritonavirum-100mg</b></p><a name="MI-Ritonavirum-100mg"> </a><a name="hcMI-Ritonavirum-100mg"> </a><a name="MI-Ritonavirum-100mg-en-US"> </a><div style="display: inline-block; background-color: #d9e0e7; padding: 6px; margin: 4px; border: 1px solid #8da1b4; border-radius: 5px; line-height: 60%"><p style="margin-bottom: 0px"/><p style="margin-bottom: 0px">Profile: <a href="StructureDefinition-ch-idmp-manufactureditemdefinition.html">CH IDMP ManufacturedItemDefinition</a></p></div><p><b>status</b>: Active</p><p><b>manufacturedDoseForm</b>: <span title="Codes:{http://standardterms.edqm.eu 10221000}">Film-coated tablet</span></p><p><b>unitOfPresentation</b>: <span title="Codes:{http://standardterms.edqm.eu 15054000}">Tablet</span></p></div>
        </text>
        <status value="active"/>
        <manufacturedDoseForm>
          <coding>
            <system value="http://standardterms.edqm.eu"/>
            <code value="10221000"/>
            <display value="Film-coated tablet"/>
          </coding>
        </manufacturedDoseForm>
        <unitOfPresentation>
          <coding>
            <system value="http://standardterms.edqm.eu"/>
            <code value="15054000"/>
            <display value="Tablet"/>
          </coding>
        </unitOfPresentation>
      </ManufacturedItemDefinition>
    </resource>
  </entry>
  <entry>
    <fullUrl value="http://example.org/AdministrableProductDefinition/PhP-Nirmatrelvir-150mg-Filmcoatedtablet"/>
    <resource>
      <AdministrableProductDefinition>
        <id value="PhP-Nirmatrelvir-150mg-Filmcoatedtablet"/>
        <meta>
          <profile value="http://fhir.ch/ig/ch-epl/StructureDefinition/ch-idmp-administrableproductdefinition"/>
        </meta>
        <text>
          <status value="generated"/><div xmlns="http://www.w3.org/1999/xhtml"><a name="AdministrableProductDefinition_PhP-Nirmatrelvir-150mg-Filmcoatedtablet"> </a><p class="res-header-id"><b>Generated Narrative: AdministrableProductDefinition PhP-Nirmatrelvir-150mg-Filmcoatedtablet</b></p><a name="PhP-Nirmatrelvir-150mg-Filmcoatedtablet"> </a><a name="hcPhP-Nirmatrelvir-150mg-Filmcoatedtablet"> </a><a name="PhP-Nirmatrelvir-150mg-Filmcoatedtablet-en-US"> </a><div style="display: inline-block; background-color: #d9e0e7; padding: 6px; margin: 4px; border: 1px solid #8da1b4; border-radius: 5px; line-height: 60%"><p style="margin-bottom: 0px"/><p style="margin-bottom: 0px">Profile: <a href="StructureDefinition-ch-idmp-administrableproductdefinition.html">CH IDMP AdministrableProductDefinition</a></p></div><p><b>status</b>: Active</p><p><b>formOf</b>: <a href="MedicinalProductDefinition-Paxlovid-Filmcoatedtablet.html">MedicinalProductDefinition: extension = Film-coated tablet,Befristete Limitation bis 31.12.2025. PAXLOVID wird als antivirale Monotherapie für die Behandlung einer bestätigten Covid-19 Infektion (Positiver Erregernachweis Antigen/PCR und vorhandener Covid-19-Symptome) in folgenden Fällen vergütet:
 • in einer Dosierung von 300 mg Nirmatrelvir (zwei Tabletten zu je 150 mg) und 100 mg Ritonavir (eine Tablette zu 100 mg) zur gleichzeitigen Einnahme alle 12 Stunden, über einen Zeitraum von 5 Tagen
 • zur Frühbehandlung (ausser bei immunsupprimierten Personen vorzugsweise innerhalb von 5 Tagen nach Symptombeginn) bei Erwachsenen, die keine Sauerstofftherapie oder Hospitalisierung aufgrund von COVID-19 benötigen und für welche gemäss der aktuell gültigen Kriterienliste der Schweizerischen Gesellschaft für Infektiologie (SSI) (https://www.bag.admin.ch/bag/de/home/medizin-und-forschung/heilmittel/versorgung-covid-19-arzneimittel.html) ein erhöhtes Risiko für einen schweren COVID-19-Verlauf besteht.; identifier = http://SMC.ch/ig/idmp/NamingSystem/IDSystem-ch-MPID#CH-7601001010604-6879301; domain = Human; indication = Paxlovid wird angewendet für die Behandlung der Coronavirus-Krankheit 2019 (COVID-19) bei Erwachsenen, die keine Sauerstofftherapie oder Hospitalisierung aufgrund von COVID-19 benötigen und bei denen ein erhöhtes Risiko für einen schweren Verlauf von COVID-19 besteht (siehe «Klinische Wirksamkeit»).
Paxlovid ist nicht als Ersatz für eine Impfung gegen COVID-19 vorgesehen. Paxlovid sollte gemäss den offiziellen Empfehlungen und unter Berücksichtigung der lokalen epidemiologischen Daten zu zirkulierenden SARS-CoV-2-Varianten angewendet werden.; legalStatusOfSupply = Medicinal product subject to medical or veterinary prescription single dispensation (A+); additionalMonitoringIndicator = Black Triangle Warning; pediatricUseIndicator = Not authorised for the treatment in children; classification = Protease inhibitors,NA KAS art. 12 para. 5 TPLO,Synthetic,Originator product</a></p><p><b>administrableDoseForm</b>: <span title="Codes:{http://standardterms.edqm.eu 10221000}">Film-coated tablet</span></p><p><b>unitOfPresentation</b>: <span title="Codes:{http://standardterms.edqm.eu 15054000}">Tablet</span></p><h3>RouteOfAdministrations</h3><table class="grid"><tr><td style="display: none">-</td><td><b>Code</b></td></tr><tr><td style="display: none">*</td><td><span title="Codes:{http://standardterms.edqm.eu 20053000}">Oral use</span></td></tr></table></div>
        </text>
        <status value="active"/>
        <formOf>
          <reference value="MedicinalProductDefinition/Paxlovid-Filmcoatedtablet"/>
        </formOf>
        <administrableDoseForm>
          <coding>
            <system value="http://standardterms.edqm.eu"/>
            <code value="10221000"/>
            <display value="Film-coated tablet"/>
          </coding>
        </administrableDoseForm>
        <unitOfPresentation>
          <coding>
            <system value="http://standardterms.edqm.eu"/>
            <code value="15054000"/>
            <display value="Tablet"/>
          </coding>
        </unitOfPresentation>
        <routeOfAdministration>
          <code>
            <coding>
              <system value="http://standardterms.edqm.eu"/>
              <code value="20053000"/>
              <display value="Oral use"/>
            </coding>
          </code>
        </routeOfAdministration>
      </AdministrableProductDefinition>
    </resource>
  </entry>
  <entry>
    <fullUrl value="http://example.org/AdministrableProductDefinition/PhP-Ritonavirum-100mg-Filmcoatedtablet"/>
    <resource>
      <AdministrableProductDefinition>
        <id value="PhP-Ritonavirum-100mg-Filmcoatedtablet"/>
        <meta>
          <profile value="http://fhir.ch/ig/ch-epl/StructureDefinition/ch-idmp-administrableproductdefinition"/>
        </meta>
        <text>
          <status value="generated"/><div xmlns="http://www.w3.org/1999/xhtml"><a name="AdministrableProductDefinition_PhP-Ritonavirum-100mg-Filmcoatedtablet"> </a><p class="res-header-id"><b>Generated Narrative: AdministrableProductDefinition PhP-Ritonavirum-100mg-Filmcoatedtablet</b></p><a name="PhP-Ritonavirum-100mg-Filmcoatedtablet"> </a><a name="hcPhP-Ritonavirum-100mg-Filmcoatedtablet"> </a><a name="PhP-Ritonavirum-100mg-Filmcoatedtablet-en-US"> </a><div style="display: inline-block; background-color: #d9e0e7; padding: 6px; margin: 4px; border: 1px solid #8da1b4; border-radius: 5px; line-height: 60%"><p style="margin-bottom: 0px"/><p style="margin-bottom: 0px">Profile: <a href="StructureDefinition-ch-idmp-administrableproductdefinition.html">CH IDMP AdministrableProductDefinition</a></p></div><p><b>status</b>: Active</p><p><b>formOf</b>: <a href="MedicinalProductDefinition-Paxlovid-Filmcoatedtablet.html">MedicinalProductDefinition: extension = Film-coated tablet,Befristete Limitation bis 31.12.2025. PAXLOVID wird als antivirale Monotherapie für die Behandlung einer bestätigten Covid-19 Infektion (Positiver Erregernachweis Antigen/PCR und vorhandener Covid-19-Symptome) in folgenden Fällen vergütet:
 • in einer Dosierung von 300 mg Nirmatrelvir (zwei Tabletten zu je 150 mg) und 100 mg Ritonavir (eine Tablette zu 100 mg) zur gleichzeitigen Einnahme alle 12 Stunden, über einen Zeitraum von 5 Tagen
 • zur Frühbehandlung (ausser bei immunsupprimierten Personen vorzugsweise innerhalb von 5 Tagen nach Symptombeginn) bei Erwachsenen, die keine Sauerstofftherapie oder Hospitalisierung aufgrund von COVID-19 benötigen und für welche gemäss der aktuell gültigen Kriterienliste der Schweizerischen Gesellschaft für Infektiologie (SSI) (https://www.bag.admin.ch/bag/de/home/medizin-und-forschung/heilmittel/versorgung-covid-19-arzneimittel.html) ein erhöhtes Risiko für einen schweren COVID-19-Verlauf besteht.; identifier = http://SMC.ch/ig/idmp/NamingSystem/IDSystem-ch-MPID#CH-7601001010604-6879301; domain = Human; indication = Paxlovid wird angewendet für die Behandlung der Coronavirus-Krankheit 2019 (COVID-19) bei Erwachsenen, die keine Sauerstofftherapie oder Hospitalisierung aufgrund von COVID-19 benötigen und bei denen ein erhöhtes Risiko für einen schweren Verlauf von COVID-19 besteht (siehe «Klinische Wirksamkeit»).
Paxlovid ist nicht als Ersatz für eine Impfung gegen COVID-19 vorgesehen. Paxlovid sollte gemäss den offiziellen Empfehlungen und unter Berücksichtigung der lokalen epidemiologischen Daten zu zirkulierenden SARS-CoV-2-Varianten angewendet werden.; legalStatusOfSupply = Medicinal product subject to medical or veterinary prescription single dispensation (A+); additionalMonitoringIndicator = Black Triangle Warning; pediatricUseIndicator = Not authorised for the treatment in children; classification = Protease inhibitors,NA KAS art. 12 para. 5 TPLO,Synthetic,Originator product</a></p><p><b>administrableDoseForm</b>: <span title="Codes:{http://standardterms.edqm.eu 10221000}">Film-coated tablet</span></p><p><b>unitOfPresentation</b>: <span title="Codes:{http://standardterms.edqm.eu 15054000}">Tablet</span></p><h3>RouteOfAdministrations</h3><table class="grid"><tr><td style="display: none">-</td><td><b>Code</b></td></tr><tr><td style="display: none">*</td><td><span title="Codes:{http://standardterms.edqm.eu 20053000}">Oral use</span></td></tr></table></div>
        </text>
        <status value="active"/>
        <formOf>
          <reference value="MedicinalProductDefinition/Paxlovid-Filmcoatedtablet"/>
        </formOf>
        <administrableDoseForm>
          <coding>
            <system value="http://standardterms.edqm.eu"/>
            <code value="10221000"/>
            <display value="Film-coated tablet"/>
          </coding>
        </administrableDoseForm>
        <unitOfPresentation>
          <coding>
            <system value="http://standardterms.edqm.eu"/>
            <code value="15054000"/>
            <display value="Tablet"/>
          </coding>
        </unitOfPresentation>
        <routeOfAdministration>
          <code>
            <coding>
              <system value="http://standardterms.edqm.eu"/>
              <code value="20053000"/>
              <display value="Oral use"/>
            </coding>
          </code>
        </routeOfAdministration>
      </AdministrableProductDefinition>
    </resource>
  </entry>
  <entry>
    <fullUrl value="http://example.org/Ingredient/Nirmatrelvir150"/>
    <resource>
      <Ingredient>
        <id value="Nirmatrelvir150"/>
        <meta>
          <profile value="http://fhir.ch/ig/ch-epl/StructureDefinition/ch-idmp-ingredient"/>
        </meta>
        <text>
          <status value="generated"/><div xmlns="http://www.w3.org/1999/xhtml"><a name="Ingredient_Nirmatrelvir150"> </a><p class="res-header-id"><b>Generated Narrative: Ingredient Nirmatrelvir150</b></p><a name="Nirmatrelvir150"> </a><a name="hcNirmatrelvir150"> </a><a name="Nirmatrelvir150-en-US"> </a><div style="display: inline-block; background-color: #d9e0e7; padding: 6px; margin: 4px; border: 1px solid #8da1b4; border-radius: 5px; line-height: 60%"><p style="margin-bottom: 0px"/><p style="margin-bottom: 0px">Profile: <a href="StructureDefinition-ch-idmp-ingredient.html">IDMP Ingredient</a></p></div><p><b>status</b>: Active</p><p><b>for</b>: </p><ul><li><a href="AdministrableProductDefinition-PhP-Nirmatrelvir-150mg-Filmcoatedtablet.html">AdministrableProductDefinition: status = active; administrableDoseForm = Film-coated tablet; unitOfPresentation = Tablet</a></li><li><a href="ManufacturedItemDefinition-MI-Nirmatrelvir-150mg.html">ManufacturedItemDefinition: status = active; manufacturedDoseForm = Film-coated tablet; unitOfPresentation = Tablet</a></li></ul><p><b>role</b>: <span title="Codes:{http://fhir.ch/ig/ch-epl/CodeSystem/ch-SMC-ingredient-role 756005051001}">Active</span></p><blockquote><p><b>substance</b></p><h3>Codes</h3><table class="grid"><tr><td style="display: none">-</td><td><b>Concept</b></td></tr><tr><td style="display: none">*</td><td><span title="Codes:{http://fhir.ch/ig/ch-epl/CodeSystem/ch-SMC-substance 7R9A5P7H32}">Nirmatrelvir</span></td></tr></table><h3>Strengths</h3><table class="grid"><tr><td style="display: none">-</td><td><b>Presentation[x]</b></td></tr><tr><td style="display: none">*</td><td>150 mg<span style="background: LightGoldenRodYellow"> (Details: UCUM  codemg = 'mg')</span>/1 Tablet<span style="background: LightGoldenRodYellow"> (Details: EDQM - Standard Terms  code15054000 = 'Tablet')</span></td></tr></table></blockquote></div>
        </text>
        <status value="active"/>
        <for>
          <reference value="AdministrableProductDefinition/PhP-Nirmatrelvir-150mg-Filmcoatedtablet"/>
        </for>
        <for>
          <reference value="ManufacturedItemDefinition/MI-Nirmatrelvir-150mg"/>
        </for>
        <role>
          <coding>
            <system value="http://fhir.ch/ig/ch-epl/CodeSystem/ch-SMC-ingredient-role"/>
            <code value="756005051001"/>
            <display value="Active"/>
          </coding>
        </role>
        <substance>
          <code>
            <concept>
              <coding>
                <system value="http://fhir.ch/ig/ch-epl/CodeSystem/ch-SMC-substance"/>
                <code value="7R9A5P7H32"/>
                <display value="Nirmatrelvir"/>
              </coding>
            </concept>
          </code>
          <strength>
            <presentationRatio>
              <numerator>
                <value value="150"/>
                <unit value="mg"/>
                <system value="http://unitsofmeasure.org"/>
                <code value="mg"/>
              </numerator>
              <denominator>
                <value value="1"/>
                <unit value="Tablet"/>
                <system value="http://standardterms.edqm.eu"/>
                <code value="15054000"/>
              </denominator>
            </presentationRatio>
          </strength>
        </substance>
      </Ingredient>
    </resource>
  </entry>
  <entry>
    <fullUrl value="http://example.org/Ingredient/Ritonavirum100"/>
    <resource>
      <Ingredient>
        <id value="Ritonavirum100"/>
        <meta>
          <profile value="http://fhir.ch/ig/ch-epl/StructureDefinition/ch-idmp-ingredient"/>
        </meta>
        <text>
          <status value="generated"/><div xmlns="http://www.w3.org/1999/xhtml"><a name="Ingredient_Ritonavirum100"> </a><p class="res-header-id"><b>Generated Narrative: Ingredient Ritonavirum100</b></p><a name="Ritonavirum100"> </a><a name="hcRitonavirum100"> </a><a name="Ritonavirum100-en-US"> </a><div style="display: inline-block; background-color: #d9e0e7; padding: 6px; margin: 4px; border: 1px solid #8da1b4; border-radius: 5px; line-height: 60%"><p style="margin-bottom: 0px"/><p style="margin-bottom: 0px">Profile: <a href="StructureDefinition-ch-idmp-ingredient.html">IDMP Ingredient</a></p></div><p><b>status</b>: Active</p><p><b>for</b>: </p><ul><li><a href="AdministrableProductDefinition-PhP-Ritonavirum-100mg-Filmcoatedtablet.html">AdministrableProductDefinition: status = active; administrableDoseForm = Film-coated tablet; unitOfPresentation = Tablet</a></li><li><a href="ManufacturedItemDefinition-MI-Ritonavirum-100mg.html">ManufacturedItemDefinition: status = active; manufacturedDoseForm = Film-coated tablet; unitOfPresentation = Tablet</a></li></ul><p><b>role</b>: <span title="Codes:{http://fhir.ch/ig/ch-epl/CodeSystem/ch-SMC-ingredient-role 756005051001}">Active</span></p><blockquote><p><b>substance</b></p><h3>Codes</h3><table class="grid"><tr><td style="display: none">-</td><td><b>Concept</b></td></tr><tr><td style="display: none">*</td><td><span title="Codes:{http://fhir.ch/ig/ch-epl/CodeSystem/ch-SMC-substance O3J8G9O825}">Ritonavir</span></td></tr></table><h3>Strengths</h3><table class="grid"><tr><td style="display: none">-</td><td><b>Presentation[x]</b></td></tr><tr><td style="display: none">*</td><td>100 mg<span style="background: LightGoldenRodYellow"> (Details: UCUM  codemg = 'mg')</span>/1 Tablet<span style="background: LightGoldenRodYellow"> (Details: EDQM - Standard Terms  code15054000 = 'Tablet')</span></td></tr></table></blockquote></div>
        </text>
        <status value="active"/>
        <for>
          <reference value="AdministrableProductDefinition/PhP-Ritonavirum-100mg-Filmcoatedtablet"/>
        </for>
        <for>
          <reference value="ManufacturedItemDefinition/MI-Ritonavirum-100mg"/>
        </for>
        <role>
          <coding>
            <system value="http://fhir.ch/ig/ch-epl/CodeSystem/ch-SMC-ingredient-role"/>
            <code value="756005051001"/>
            <display value="Active"/>
          </coding>
        </role>
        <substance>
          <code>
            <concept>
              <coding>
                <system value="http://fhir.ch/ig/ch-epl/CodeSystem/ch-SMC-substance"/>
                <code value="O3J8G9O825"/>
                <display value="Ritonavir"/>
              </coding>
            </concept>
          </code>
          <strength>
            <presentationRatio>
              <numerator>
                <value value="100"/>
                <unit value="mg"/>
                <system value="http://unitsofmeasure.org"/>
                <code value="mg"/>
              </numerator>
              <denominator>
                <value value="1"/>
                <unit value="Tablet"/>
                <system value="http://standardterms.edqm.eu"/>
                <code value="15054000"/>
              </denominator>
            </presentationRatio>
          </strength>
        </substance>
      </Ingredient>
    </resource>
  </entry>
  <entry>
    <fullUrl value="http://example.org/ClinicalUseDefinition/IND-10084529"/>
    <resource>
      <ClinicalUseDefinition>
        <id value="IND-10084529"/>
        <meta>
          <profile value="http://fhir.ch/ig/ch-epl/StructureDefinition/ch-idmp-clinicalusedefinition-indication"/>
        </meta>
        <text>
          <status value="generated"/><div xmlns="http://www.w3.org/1999/xhtml"><a name="ClinicalUseDefinition_IND-10084529"> </a><p class="res-header-id"><b>Generated Narrative: ClinicalUseDefinition IND-10084529</b></p><a name="IND-10084529"> </a><a name="hcIND-10084529"> </a><a name="IND-10084529-en-US"> </a><div style="display: inline-block; background-color: #d9e0e7; padding: 6px; margin: 4px; border: 1px solid #8da1b4; border-radius: 5px; line-height: 60%"><p style="margin-bottom: 0px"/><p style="margin-bottom: 0px">Profile: <a href="StructureDefinition-ch-idmp-clinicalusedefinition-indication.html">CH IDMP ClinicalUseDefinition Indication</a></p></div><p><b>type</b>: Indication</p><p><b>subject</b>: <a href="MedicinalProductDefinition-Paxlovid-Filmcoatedtablet.html">MedicinalProductDefinition: extension = Film-coated tablet,Befristete Limitation bis 31.12.2025. PAXLOVID wird als antivirale Monotherapie für die Behandlung einer bestätigten Covid-19 Infektion (Positiver Erregernachweis Antigen/PCR und vorhandener Covid-19-Symptome) in folgenden Fällen vergütet:
 • in einer Dosierung von 300 mg Nirmatrelvir (zwei Tabletten zu je 150 mg) und 100 mg Ritonavir (eine Tablette zu 100 mg) zur gleichzeitigen Einnahme alle 12 Stunden, über einen Zeitraum von 5 Tagen
 • zur Frühbehandlung (ausser bei immunsupprimierten Personen vorzugsweise innerhalb von 5 Tagen nach Symptombeginn) bei Erwachsenen, die keine Sauerstofftherapie oder Hospitalisierung aufgrund von COVID-19 benötigen und für welche gemäss der aktuell gültigen Kriterienliste der Schweizerischen Gesellschaft für Infektiologie (SSI) (https://www.bag.admin.ch/bag/de/home/medizin-und-forschung/heilmittel/versorgung-covid-19-arzneimittel.html) ein erhöhtes Risiko für einen schweren COVID-19-Verlauf besteht.; identifier = http://SMC.ch/ig/idmp/NamingSystem/IDSystem-ch-MPID#CH-7601001010604-6879301; domain = Human; indication = Paxlovid wird angewendet für die Behandlung der Coronavirus-Krankheit 2019 (COVID-19) bei Erwachsenen, die keine Sauerstofftherapie oder Hospitalisierung aufgrund von COVID-19 benötigen und bei denen ein erhöhtes Risiko für einen schweren Verlauf von COVID-19 besteht (siehe «Klinische Wirksamkeit»).
Paxlovid ist nicht als Ersatz für eine Impfung gegen COVID-19 vorgesehen. Paxlovid sollte gemäss den offiziellen Empfehlungen und unter Berücksichtigung der lokalen epidemiologischen Daten zu zirkulierenden SARS-CoV-2-Varianten angewendet werden.; legalStatusOfSupply = Medicinal product subject to medical or veterinary prescription single dispensation (A+); additionalMonitoringIndicator = Black Triangle Warning; pediatricUseIndicator = Not authorised for the treatment in children; classification = Protease inhibitors,NA KAS art. 12 para. 5 TPLO,Synthetic,Originator product</a></p><blockquote><p><b>indication</b></p><h3>DiseaseSymptomProcedures</h3><table class="grid"><tr><td style="display: none">-</td><td><b>Concept</b></td></tr><tr><td style="display: none">*</td><td><span title="Codes:{https://www.meddra.org 10084529}">Coronavirus-Krankheit 2019 (COVID-19)</span></td></tr></table><h3>IntendedEffects</h3><table class="grid"><tr><td style="display: none">-</td><td><b>Concept</b></td></tr><tr><td style="display: none">*</td><td><span title="Codes:{http://spor.ema.europa.eu/v1/lists/200000003186 200000003194}">therapeutic</span></td></tr></table></blockquote></div>
        </text>
        <type value="indication"/>
        <subject>
          <reference value="MedicinalProductDefinition/Paxlovid-Filmcoatedtablet"/>
        </subject>
        <indication>
          <diseaseSymptomProcedure>
            <concept>
              <coding>
                <system value="https://www.meddra.org"/>
                <code value="10084529"/>
                <display value="Coronavirus-Krankheit 2019 (COVID-19)"/>
              </coding>
            </concept>
          </diseaseSymptomProcedure>
          <intendedEffect>
            <concept>
              <coding>
                <system value="http://spor.ema.europa.eu/v1/lists/200000003186"/>
                <code value="200000003194"/>
                <display value="therapeutic"/>
              </coding>
            </concept>
          </intendedEffect>
        </indication>
      </ClinicalUseDefinition>
    </resource>
  </entry>
  <entry>
    <fullUrl value="http://example.org/ClinicalUseDefinition/LIM-840539006"/>
    <resource>
      <ClinicalUseDefinition>
        <id value="LIM-840539006"/>
        <text>
          <status value="generated"/><div xmlns="http://www.w3.org/1999/xhtml"><a name="ClinicalUseDefinition_LIM-840539006"> </a><p class="res-header-id"><b>Generated Narrative: ClinicalUseDefinition LIM-840539006</b></p><a name="LIM-840539006"> </a><a name="hcLIM-840539006"> </a><a name="LIM-840539006-en-US"> </a><p><b>type</b>: Indication</p><blockquote><p><b>indication</b></p><h3>DiseaseSymptomProcedures</h3><table class="grid"><tr><td style="display: none">-</td><td><b>Concept</b></td></tr><tr><td style="display: none">*</td><td><span title="Codes:{http://snomed.info/sct 840539006}">Disease caused by severe acute respiratory syndrome coronavirus 2 (disorder)</span></td></tr></table><h3>IntendedEffects</h3><table class="grid"><tr><td style="display: none">-</td><td><b>Concept</b></td></tr><tr><td style="display: none">*</td><td><span title="Codes:{http://spor.ema.europa.eu/v1/lists/200000003186 200000003194}">therapeutic</span></td></tr></table></blockquote></div>
        </text>
        <type value="indication"/>
        <indication>
          <diseaseSymptomProcedure>
            <concept>
              <coding>
                <system value="http://snomed.info/sct"/>
                <code value="840539006"/>
                <display value="Disease caused by severe acute respiratory syndrome coronavirus 2 (disorder)"/>
              </coding>
            </concept>
          </diseaseSymptomProcedure>
          <intendedEffect>
            <concept>
              <coding>
                <system value="http://spor.ema.europa.eu/v1/lists/200000003186"/>
                <code value="200000003194"/>
                <display value="therapeutic"/>
              </coding>
            </concept>
          </intendedEffect>
        </indication>
      </ClinicalUseDefinition>
    </resource>
  </entry>
</Bundle>