{
  "resourceType" : "RegulatedAuthorization",
  "id" : "MA-67831002",
  "meta" : {
    "profile" : ["http://fhir.ch/ig/ch-epl/StructureDefinition/ch-idmp-regulatedauthorization"]
  },
  "text" : {
    "status" : "generated",
    "div" : "<div xmlns=\"http://www.w3.org/1999/xhtml\"><p class=\"res-header-id\"><b>Generated Narrative: RegulatedAuthorization MA-67831002</b></p><a name=\"MA-67831002\"> </a><a name=\"hcMA-67831002\"> </a><div style=\"display: inline-block; background-color: #d9e0e7; padding: 6px; margin: 4px; border: 1px solid #8da1b4; border-radius: 5px; line-height: 60%\"><p style=\"margin-bottom: 0px\"/><p style=\"margin-bottom: 0px\">Profile: <a href=\"StructureDefinition-ch-idmp-regulatedauthorization.html\">IDMP RegulatedAuthorization</a></p></div><p><b>identifier</b>: <a href=\"NamingSystem-AuthNo.html\" title=\"Temporary Identifier in this implementation guide until officially released by Swissmedic\">Marketing Authorisation Number</a>/66231002</p><p><b>subject</b>: <a href=\"PackagedProductDefinition-PMP-Abrilada-40mg-0.8ml-2-Pre-Filled-Pen.html\">PackagedProductDefinition: identifier = http://fhir.ch/ig/ch-epl/sid/pcid#Clinical Product Identifier#CH-7601001010604-6783101-002; containedItemQuantity = 2 Pre-filled pen; description = ABRILADA Inj Lös 40 mg/0.8ml Fertpen 2 x 0.8 ml</a></p><p><b>type</b>: <span title=\"Codes:{http://fhir.ch/ig/ch-epl/CodeSystem/ch-authorisation-type 756000002001}\">Marketing Authorisation</span></p><p><b>region</b>: <span title=\"Codes:{urn:iso:std:iso:3166 CH}\">Switzerland</span></p><p><b>status</b>: <span title=\"Codes:{http://fhir.ch/ig/ch-epl/CodeSystem/ch-SMC-authorisation-status 756005023007}\">valid</span></p><p><b>statusDate</b>: 2020-02-12</p><p><b>holder</b>: <a href=\"#hcMA-67831002/holder-Pfizer-AG\">Organization Pfizer AG</a></p><p><b>regulator</b>: <a href=\"#hcMA-67831002/regulator-SMC\">Organization SMC</a></p><hr/><blockquote><p class=\"res-header-id\"><b>Generated Narrative: Organization #holder-Pfizer-AG</b></p><a name=\"MA-67831002/holder-Pfizer-AG\"> </a><a name=\"hcMA-67831002/holder-Pfizer-AG\"> </a><div style=\"display: inline-block; background-color: #d9e0e7; padding: 6px; margin: 4px; border: 1px solid #8da1b4; border-radius: 5px; line-height: 60%\"><p style=\"margin-bottom: 0px\"/><p style=\"margin-bottom: 0px\">Profile: <a href=\"StructureDefinition-ch-epl-organization.html\">CH EPL Organization</a></p></div><p><b>identifier</b>: <a href=\"NamingSystem-LOC.html\" title=\"Identifier holding a number for LocID (Location Identifier of the European Medicines Agency - Organisation Management System OMS)\">LOC Identifier</a>/100015286, <a href=\"NamingSystem-GLN.html\" title=\"Identifier holding a number for GLN (Global Location Number)\">GLN Identifier</a>/7601001010604</p><p><b>name</b>: Pfizer AG</p></blockquote><hr/><blockquote><p class=\"res-header-id\"><b>Generated Narrative: Organization #regulator-SMC</b></p><a name=\"MA-67831002/regulator-SMC\"> </a><a name=\"hcMA-67831002/regulator-SMC\"> </a><div style=\"display: inline-block; background-color: #d9e0e7; padding: 6px; margin: 4px; border: 1px solid #8da1b4; border-radius: 5px; line-height: 60%\"><p style=\"margin-bottom: 0px\"/><p style=\"margin-bottom: 0px\">Profile: <a href=\"StructureDefinition-ch-epl-organization.html\">CH EPL Organization</a></p></div><p><b>identifier</b>: <a href=\"NamingSystem-LOC.html\" title=\"Identifier holding a number for LocID (Location Identifier of the European Medicines Agency - Organisation Management System OMS)\">LOC Identifier</a>/100010911, <a href=\"NamingSystem-GLN.html\" title=\"Identifier holding a number for GLN (Global Location Number)\">GLN Identifier</a>/7601001398511</p><p><b>name</b>: SMC</p></blockquote></div>"
  },
  "contained" : [{
    "resourceType" : "Organization",
    "id" : "holder-Pfizer-AG",
    "meta" : {
      "profile" : ["http://fhir.ch/ig/ch-epl/StructureDefinition/ch-epl-organization"]
    },
    "identifier" : [{
      "system" : "urn:oid:1.2.276.0.76",
      "value" : "100015286"
    },
    {
      "system" : "urn:oid:2.51.1.3",
      "value" : "7601001010604"
    }],
    "name" : "Pfizer AG"
  },
  {
    "resourceType" : "Organization",
    "id" : "regulator-SMC",
    "meta" : {
      "profile" : ["http://fhir.ch/ig/ch-epl/StructureDefinition/ch-epl-organization"]
    },
    "identifier" : [{
      "system" : "urn:oid:1.2.276.0.76",
      "value" : "100010911"
    },
    {
      "system" : "urn:oid:2.51.1.3",
      "value" : "7601001398511"
    }],
    "name" : "SMC"
  }],
  "identifier" : [{
    "system" : "http://fhir.ch/ig/ch-epl/sid/authno",
    "value" : "66231002"
  }],
  "subject" : [{
    "reference" : "PackagedProductDefinition/PMP-Abrilada-40mg-0.8ml-2-Pre-Filled-Pen"
  }],
  "type" : {
    "coding" : [{
      "system" : "http://fhir.ch/ig/ch-epl/CodeSystem/ch-authorisation-type",
      "code" : "756000002001",
      "display" : "Marketing Authorisation"
    }]
  },
  "region" : [{
    "coding" : [{
      "system" : "urn:iso:std:iso:3166",
      "code" : "CH",
      "display" : "Switzerland"
    }]
  }],
  "status" : {
    "coding" : [{
      "system" : "http://fhir.ch/ig/ch-epl/CodeSystem/ch-SMC-authorisation-status",
      "code" : "756005023007",
      "display" : "valid"
    }]
  },
  "statusDate" : "2020-02-12",
  "holder" : {
    "reference" : "#holder-Pfizer-AG"
  },
  "regulator" : {
    "reference" : "#regulator-SMC"
  }
}