{
  "resourceType" : "RegulatedAuthorization",
  "id" : "MA-6783101",
  "meta" : {
    "profile" : ["http://fhir.ch/ig/ch-epl/StructureDefinition/ch-idmp-regulatedauthorization"]
  },
  "text" : {
    "status" : "generated",
    "div" : "<div xmlns=\"http://www.w3.org/1999/xhtml\"><p class=\"res-header-id\"><b>Generated Narrative: RegulatedAuthorization MA-6783101</b></p><a name=\"MA-6783101\"> </a><a name=\"hcMA-6783101\"> </a><div style=\"display: inline-block; background-color: #d9e0e7; padding: 6px; margin: 4px; border: 1px solid #8da1b4; border-radius: 5px; line-height: 60%\"><p style=\"margin-bottom: 0px\"/><p style=\"margin-bottom: 0px\">Profile: <a href=\"StructureDefinition-ch-idmp-regulatedauthorization.html\">IDMP RegulatedAuthorization</a></p></div><p><b>identifier</b>: <a href=\"NamingSystem-AuthNo.html\" title=\"Temporary Identifier in this implementation guide until officially released by Swissmedic\">Marketing Authorisation Number</a>/6783101</p><p><b>subject</b>: <a href=\"MedicinalProductDefinition-Abrilada-40mg-Pre-Filled-Pen.html\">MedicinalProductDefinition: extension = Solution for injection,Austausch Referenzpräparat/Biosimilar\nDie Behandlung mit ABRILADA bedarf der Kostengutsprache durch den Krankenversicherer nach vorgängiger Konsultation des Vertrauensarztes. Für die Behandlung mit ABRILADA ist keine neue Kostengutsprache nötig, wenn in derselben Indikation bereits eine Kostengutsprache für das Referenzpräparat oder ein anderes Biosimilar besteht.\n\nAktive rheumatoide Arthritis\nBehandlung mit ABRILADA, wenn die vorausgegangene antirheumatische Standardtherapie mit krankheitsmodifizierenden Antirheumatika (DMARDs) unzulänglich war.\n\nAktive polyartikuläre juvenile idiopathische Arthritis bei Kindern und Jugendlichen ab einem Körpergewicht von ≥ 30 kg\nBehandlung mit ABRILADA, wenn die vorausgegangene Standardtherapie mit krankheitsmodifizierenden Antirheumatika (DMARDs) unzulänglich war.\n\nPsoriasis-Arthritis\nBehandlung mit ABRILADA, wenn die vorausgegangene Standardtherapie mit krankheitsmodifizierenden Antirheumatika (DMARDs) unzulänglich war.\n\nAnkylosierende Spondylitis (Morbus Bechterew)\nBehandlung mit ABRILADA, wenn die vorausgegangene konventionelle Therapie unzulänglich war oder nicht vertragen wurde.\n\nAktiver Morbus Crohn\nBehandlung erwachsener Patienten mit ABRILADA, wenn die vorausgegangene konventionelle Therapie (z.B. mit Azathioprin, 6-Mercaptopurin oder Glukokortikoiden) unzulänglich war, sowie bei Patienten, die nicht mehr auf Infliximab ansprechen oder dieses nicht vertragen. Nach zwei Jahren ununterbrochener Therapie bedarf die Behandlung einer erneuten Kostengutsprache durch den Krankenversicherer nach vorgängiger Konsultation des Vertrauensarztes.\n\nModerate bis schwere Colitis ulcerosa\nBehandlung erwachsener Patienten mit ABRILADA, wenn die vorausgegangene konventionelle Therapie (z.B. mit Azathioprin, 6-Mercaptopurin oder Glukokortikoiden) unzulänglich war oder nicht vertragen wurde.\n\nDie Verschreibung von ABRILADA für die folgenden Behandlungen kann nur durch Fachärzte der Dermatologie oder dermatologische Universitätskliniken/ Polikliniken erfolgen:\n\nSchwere Plaque-Psoriasis\nBehandlung erwachsener Patienten mit schwerer Plaque-Psoriasis, bei denen eine Phototherapie oder eine der folgenden konventionellen systemischen Therapien (Ciclosporin, Methotrexat, Acitretin) keinen therapeutischen Erfolg gezeigt haben. Falls nach 16 Wochen kein therapeutischer Erfolg eingetreten ist, ist die Behandlung abzubrechen.\n\nAktive, mittelschwere bis schwere Hidradenitis suppurativa (Acne inversa)\nBehandlung erwachsener Patienten, wenn die vorausgegangene systemische Therapie mit Antibiotika unzulänglich war. Bei Patienten, die nach 12 Wochen kein Ansprechen nach HiSCR von mindestens 50% zeigen, ist die Behandlung abzubrechen. Nach 52 Wochen ununterbrochener Therapie bedarf die Behandlung einer erneuten Kostengutsprache durch den Krankenversicherer nach vorgängiger Konsultation des Vertrauensarztes.; identifier = http://fhir.ch/ig/ch-epl/sid/mpid#Medical Product Identifier#CH-7601001010604-6783101; indication = Rheumatoide Arthritis\nAbrilada ist indiziert zur Reduzierung der Anzeichen und Symptome sowie zur Verlangsamung der Progression struktureller Schäden und zur Verbesserung der körperlichen Funktionsfähigkeit bei erwachsenen Patienten mit einer mässig bis stark ausgeprägten aktiven rheumatoiden Arthritis, die nur unzureichend auf krankheitsmodifizierende Antirheumatika (DMARDs) angesprochen haben.\nAbrilada kann als Monotherapie oder in Kombination mit Methotrexat bzw. anderen krankheitsmodifizierenden Antirheumatika eingesetzt werden, wobei aber die Kombination von Adalimumab mit Ciclosporin, Azathioprin und anderen anti-TNF-α-Therapien nicht untersucht worden ist.\nBei Patienten, bei denen eine mässig bis stark ausgeprägte rheumatoide Arthritis erst kürzlich (&lt;3 Jahre) diagnostiziert wurde und die zuvor nicht mit Methotrexat behandelt worden war, konnte eine Wirksamkeit von Adalimumab in Kombination mit Methotrexat gezeigt werden.\n\nPolyartikuläre juvenile idiopathische Arthritis (ab 30 kg Körpergewicht)\nAbrilada ist in Kombination mit Methotrexat indiziert zur Behandlung der aktiven polyartikulären juvenilen idiopathischen Arthritis bei Kindern und Jugendlichen ab 30 kg Körpergewicht, die nur unzureichend auf ein oder mehrere krankheitsmodifizierende Antirheumatika (DMARDs), einschliesslich Methotrexat, angesprochen haben oder eine solche Therapie nicht tolerieren. Abrilada kann im Falle einer Unverträglichkeit gegenüber Methotrexat oder, wenn die weitere Behandlung mit Methotrexat nicht möglich ist, als Monotherapie angewendet werden. Bei Kindern, die jünger als 4 Jahre sind, wurde Adalimumab nicht untersucht.\n\nPsoriasis-Arthritis\nAbrilada ist indiziert zur Reduzierung der Anzeichen und Symptome der Psoriasis-Arthritis bei Patienten mit ungenügendem Ansprechen auf krankheitsmodifizierende Antirheumatika. Abrilada reduziert die Progressionsrate struktureller Schäden und verbessert die körperliche Funktionsfähigkeit bei Patienten mit der polyartikulären, symmetrischen Form der Erkrankung. Abrilada kann als Monotherapie oder in Kombination mit krankheitsmodifizierenden Antirheumatika angewendet werden.\n\nAnkylosierende Spondylitis (Morbus Bechterew)\nAbrilada ist indiziert zur Behandlung von erwachsenen Patienten mit aktiver ankylosierender Spondylitis, die nur unzureichend auf herkömmliche Therapien angesprochen haben.\n\nMorbus Crohn\nAbrilada ist indiziert zur Behandlung von erwachsenen Patienten mit einem Morbus Crohn mit mässiger bis hoher Krankheitsaktivität, die nur unzureichend auf herkömmliche Therapien angesprochen haben, sowie bei erwachsenen Patienten, die nicht mehr auf Infliximab ansprechen oder dieses nicht vertragen.\n\nColitis ulcerosa\nAbrilada ist indiziert zur Behandlung der mittelschweren bis schweren aktiven Colitis ulcerosa bei erwachsenen Patienten, die auf die herkömmliche Therapie, einschliesslich Glukokortikoide und/oder 6-Mercaptopurin (6-MP) oder Azathioprin (AZA), unzureichend angesprochen haben oder die eine Unverträglichkeit gegen eine solche Therapie haben oder bei denen eine solche Therapie kontraindiziert ist.\n\nPsoriasis\nAbrilada ist als Monotherapie indiziert zur Behandlung von erwachsenen Patienten mit mittelschwerer bis schwerer, chronischer Plaque-Psoriasis, bei denen eine systemische Therapie oder eine PUVA-Therapie angezeigt ist.\n\nPsoriasis bei Kindern und Jugendlichen (ab 30 kg Körpergewicht)\nAbrilada ist indiziert zur Behandlung der schweren chronischen Plaque-Psoriasis bei Kindern und Jugendlichen mit einem Körpergewicht ≥30 kg, die nur unzureichend auf Phototherapien oder systemische Vortherapien angesprochen haben oder für die diese Therapien nicht geeignet sind.\n\nHidradenitis suppurativa (Acne inversa)\nAbrilada ist indiziert zur Behandlung von erwachsenen Patienten mit aktiver mittelschwerer bis schwerer Hidradenitis suppurativa (Acne inversa), die unzureichend auf eine systemische Antibiotikatherapie angesprochen haben.\n\nUveitis\nAbrilada ist indiziert zur Induktion (in Kombination mit Kortikosteroiden) und Erhaltung einer Remission bei erwachsenen Patienten mit Kortikosteroid-abhängiger nicht-infektiöser intermediärer Uveitis, posteriorer Uveitis oder Panuveitis, die nur unzureichend auf Kortikosteroide mit oder ohne Immunmodulatoren angesprochen haben oder die eine Kortikoid sparende Behandlung benötigen. Die Kombination mit Kortikosteroiden und/oder Immunmodulatoren richtet sich nach dem anatomischen und funktionellen Verlauf.; legalStatusOfSupply = Medicinal product subject to medical or veterinary prescription (B); additionalMonitoringIndicator = No Warning; pediatricUseIndicator = Authorised for the treatment in children; classification = adalimumab,Extension for biosimilar,Biologics,Originator product,07. STOFFWECHSEL</a></p><p><b>type</b>: <span title=\"Codes:{http://fhir.ch/ig/ch-epl/CodeSystem/ch-authorisation-type 756000002001}\">Marketing Authorisation</span></p><p><b>region</b>: <span title=\"Codes:{urn:iso:std:iso:3166 CH}\">Switzerland</span></p><p><b>status</b>: <span title=\"Codes:{http://fhir.ch/ig/ch-epl/CodeSystem/ch-SMC-authorisation-status 756005023007}\">valid</span></p><p><b>statusDate</b>: 2020-02-12</p><p><b>holder</b>: <a href=\"#hcMA-6783101/holder-Pfizer-AG\">Organization Pfizer AG</a></p><p><b>regulator</b>: <a href=\"#hcMA-6783101/regulator-SMC\">Organization SMC</a></p><hr/><blockquote><p class=\"res-header-id\"><b>Generated Narrative: Organization #holder-Pfizer-AG</b></p><a name=\"MA-6783101/holder-Pfizer-AG\"> </a><a name=\"hcMA-6783101/holder-Pfizer-AG\"> </a><div style=\"display: inline-block; background-color: #d9e0e7; padding: 6px; margin: 4px; border: 1px solid #8da1b4; border-radius: 5px; line-height: 60%\"><p style=\"margin-bottom: 0px\"/><p style=\"margin-bottom: 0px\">Profile: <a href=\"StructureDefinition-ch-epl-organization.html\">CH EPL Organization</a></p></div><p><b>identifier</b>: <a href=\"NamingSystem-LOC.html\" title=\"Identifier holding a number for LocID (Location Identifier of the European Medicines Agency - Organisation Management System OMS)\">LOC Identifier</a>/100015286, <a href=\"NamingSystem-GLN.html\" title=\"Identifier holding a number for GLN (Global Location Number)\">GLN Identifier</a>/7601001010604</p><p><b>name</b>: Pfizer AG</p></blockquote><hr/><blockquote><p class=\"res-header-id\"><b>Generated Narrative: Organization #regulator-SMC</b></p><a name=\"MA-6783101/regulator-SMC\"> </a><a name=\"hcMA-6783101/regulator-SMC\"> </a><div style=\"display: inline-block; background-color: #d9e0e7; padding: 6px; margin: 4px; border: 1px solid #8da1b4; border-radius: 5px; line-height: 60%\"><p style=\"margin-bottom: 0px\"/><p style=\"margin-bottom: 0px\">Profile: <a href=\"StructureDefinition-ch-epl-organization.html\">CH EPL Organization</a></p></div><p><b>identifier</b>: <a href=\"NamingSystem-LOC.html\" title=\"Identifier holding a number for LocID (Location Identifier of the European Medicines Agency - Organisation Management System OMS)\">LOC Identifier</a>/100010911, <a href=\"NamingSystem-GLN.html\" title=\"Identifier holding a number for GLN (Global Location Number)\">GLN Identifier</a>/7601001398511</p><p><b>name</b>: SMC</p></blockquote></div>"
  },
  "contained" : [{
    "resourceType" : "Organization",
    "id" : "holder-Pfizer-AG",
    "meta" : {
      "profile" : ["http://fhir.ch/ig/ch-epl/StructureDefinition/ch-epl-organization"]
    },
    "identifier" : [{
      "system" : "urn:oid:1.2.276.0.76",
      "value" : "100015286"
    },
    {
      "system" : "urn:oid:2.51.1.3",
      "value" : "7601001010604"
    }],
    "name" : "Pfizer AG"
  },
  {
    "resourceType" : "Organization",
    "id" : "regulator-SMC",
    "meta" : {
      "profile" : ["http://fhir.ch/ig/ch-epl/StructureDefinition/ch-epl-organization"]
    },
    "identifier" : [{
      "system" : "urn:oid:1.2.276.0.76",
      "value" : "100010911"
    },
    {
      "system" : "urn:oid:2.51.1.3",
      "value" : "7601001398511"
    }],
    "name" : "SMC"
  }],
  "identifier" : [{
    "system" : "http://fhir.ch/ig/ch-epl/sid/authno",
    "value" : "6783101"
  }],
  "subject" : [{
    "reference" : "MedicinalProductDefinition/Abrilada-40mg-Pre-Filled-Pen"
  }],
  "type" : {
    "coding" : [{
      "system" : "http://fhir.ch/ig/ch-epl/CodeSystem/ch-authorisation-type",
      "code" : "756000002001",
      "display" : "Marketing Authorisation"
    }]
  },
  "region" : [{
    "coding" : [{
      "system" : "urn:iso:std:iso:3166",
      "code" : "CH",
      "display" : "Switzerland"
    }]
  }],
  "status" : {
    "coding" : [{
      "system" : "http://fhir.ch/ig/ch-epl/CodeSystem/ch-SMC-authorisation-status",
      "code" : "756005023007",
      "display" : "valid"
    }]
  },
  "statusDate" : "2020-02-12",
  "holder" : {
    "reference" : "#holder-Pfizer-AG"
  },
  "regulator" : {
    "reference" : "#regulator-SMC"
  }
}