<?xml version="1.0" encoding="UTF-8"?>

<RegulatedAuthorization xmlns="http://hl7.org/fhir">
  <id value="MA-66231001"/>
  <meta>
    <profile value="http://fhir.ch/ig/ch-epl/StructureDefinition/ch-idmp-regulatedauthorization"/>
  </meta>
  <text>
    <status value="generated"/><div xmlns="http://www.w3.org/1999/xhtml"><p class="res-header-id"><b>Generated Narrative: RegulatedAuthorization MA-66231001</b></p><a name="MA-66231001"> </a><a name="hcMA-66231001"> </a><a name="MA-66231001-en-US"> </a><div style="display: inline-block; background-color: #d9e0e7; padding: 6px; margin: 4px; border: 1px solid #8da1b4; border-radius: 5px; line-height: 60%"><p style="margin-bottom: 0px"/><p style="margin-bottom: 0px">Profile: <a href="StructureDefinition-ch-idmp-regulatedauthorization.html">IDMP RegulatedAuthorization</a></p></div><p><b>identifier</b>: <code>http://SMC.ch/ig/idmp/NamingSystem/IDSystem-ch-MarketingAuthorisationNumber</code>/66231001</p><p><b>subject</b>: <a href="PackagedProductDefinition-PMP-Keytruda-100mg-4ml-Solution-for-Infusion.html">PackagedProductDefinition: identifier = http://SMC.ch/ig/idmp/NamingSystem/IDSystem-ch-PCID#CH-7601001001138-6623101-001; containedItemQuantity = 1 Vial; description = KEYTRUDA Inf Konz 100 mg/4ml Durchstf</a></p><p><b>type</b>: <span title="Codes:{http://fhir.ch/ig/ch-epl/CodeSystem/ch-authorisation-type 756000002001}">Marketing Authorisation</span></p><p><b>region</b>: <span title="Codes:{urn:iso:std:iso:3166 CH}">Switzerland</span></p><p><b>status</b>: <span title="Codes:{http://fhir.ch/ig/ch-epl/CodeSystem/ch-SMC-authorisation-status 756005023007}">valid</span></p><p><b>statusDate</b>: 2022-02-17</p><p><b>holder</b>: <a href="#hcMA-66231001/holder-MSD-Merck-Sharp-Dohme-AG">Organization MSD Merck Sharp &amp; Dohme AG</a></p><p><b>regulator</b>: <a href="#hcMA-66231001/regulator-SMC">Organization SMC</a></p><hr/><blockquote><p class="res-header-id"><b>Generated Narrative: Organization #holder-MSD-Merck-Sharp-Dohme-AG</b></p><a name="MA-66231001/holder-MSD-Merck-Sharp-Dohme-AG"> </a><a name="hcMA-66231001/holder-MSD-Merck-Sharp-Dohme-AG"> </a><a name="MA-66231001/holder-MSD-Merck-Sharp-Dohme-AG-en-US"> </a><div style="display: inline-block; background-color: #d9e0e7; padding: 6px; margin: 4px; border: 1px solid #8da1b4; border-radius: 5px; line-height: 60%"><p style="margin-bottom: 0px"/><p style="margin-bottom: 0px">Profile: <a href="StructureDefinition-ch-epl-organization.html">CH EPL Organization</a></p></div><p><b>identifier</b>: <a href="NamingSystem-LOC.html" title="Identifier holding a number for LocID (Location Identifier of the European Medicines Agency - Organisation Management System OMS)">LOC Identifier</a>/100080484, <a href="NamingSystem-GLN.html" title="Identifier holding a number for GLN (Global Location Number)">GLN Identifier</a>/7601001001138</p><p><b>name</b>: MSD Merck Sharp &amp; Dohme AG</p></blockquote><hr/><blockquote><p class="res-header-id"><b>Generated Narrative: Organization #regulator-SMC</b></p><a name="MA-66231001/regulator-SMC"> </a><a name="hcMA-66231001/regulator-SMC"> </a><a name="MA-66231001/regulator-SMC-en-US"> </a><div style="display: inline-block; background-color: #d9e0e7; padding: 6px; margin: 4px; border: 1px solid #8da1b4; border-radius: 5px; line-height: 60%"><p style="margin-bottom: 0px"/><p style="margin-bottom: 0px">Profile: <a href="StructureDefinition-ch-epl-organization.html">CH EPL Organization</a></p></div><p><b>identifier</b>: <a href="NamingSystem-LOC.html" title="Identifier holding a number for LocID (Location Identifier of the European Medicines Agency - Organisation Management System OMS)">LOC Identifier</a>/100010911, <a href="NamingSystem-GLN.html" title="Identifier holding a number for GLN (Global Location Number)">GLN Identifier</a>/7601001398511</p><p><b>name</b>: SMC</p></blockquote></div>
  </text>
  <contained>
    <Organization>
      <id value="holder-MSD-Merck-Sharp-Dohme-AG"/>
      <meta>
        <profile value="http://fhir.ch/ig/ch-epl/StructureDefinition/ch-epl-organization"/>
      </meta>
      <identifier>
        <system value="urn:oid:1.2.276.0.76"/>
        <value value="100080484"/>
      </identifier>
      <identifier>
        <system value="urn:oid:2.51.1.3"/>
        <value value="7601001001138"/>
      </identifier>
      <name value="MSD Merck Sharp &amp; Dohme AG"/>
    </Organization>
  </contained>
  <contained>
    <Organization>
      <id value="regulator-SMC"/>
      <meta>
        <profile value="http://fhir.ch/ig/ch-epl/StructureDefinition/ch-epl-organization"/>
      </meta>
      <identifier>
        <system value="urn:oid:1.2.276.0.76"/>
        <value value="100010911"/>
      </identifier>
      <identifier>
        <system value="urn:oid:2.51.1.3"/>
        <value value="7601001398511"/>
      </identifier>
      <name value="SMC"/>
    </Organization>
  </contained>
  <identifier>
    <system value="http://SMC.ch/ig/idmp/NamingSystem/IDSystem-ch-MarketingAuthorisationNumber"/>
    <value value="66231001"/>
  </identifier>
  <subject>
    <reference value="PackagedProductDefinition/PMP-Keytruda-100mg-4ml-Solution-for-Infusion"/>
  </subject>
  <type>
    <coding>
      <system value="http://fhir.ch/ig/ch-epl/CodeSystem/ch-authorisation-type"/>
      <code value="756000002001"/>
      <display value="Marketing Authorisation"/>
    </coding>
  </type>
  <region>
    <coding>
      <system value="urn:iso:std:iso:3166"/>
      <code value="CH"/>
      <display value="Switzerland"/>
    </coding>
  </region>
  <status>
    <coding>
      <system value="http://fhir.ch/ig/ch-epl/CodeSystem/ch-SMC-authorisation-status"/>
      <code value="756005023007"/>
      <display value="valid"/>
    </coding>
  </status>
  <statusDate value="2022-02-17"/>
  <holder>
    <reference value="#holder-MSD-Merck-Sharp-Dohme-AG"/>
  </holder>
  <regulator>
    <reference value="#regulator-SMC"/>
  </regulator>
</RegulatedAuthorization>