{
  "resourceType" : "RegulatedAuthorization",
  "id" : "MA-67719001",
  "meta" : {
    "profile" : ["http://fhir.ch/ig/ch-epl/StructureDefinition/ch-idmp-regulatedauthorization"]
  },
  "text" : {
    "status" : "generated",
    "div" : "<div xmlns=\"http://www.w3.org/1999/xhtml\"><p class=\"res-header-id\"><b>Generated Narrative: RegulatedAuthorization MA-67719001</b></p><a name=\"MA-67719001\"> </a><a name=\"hcMA-67719001\"> </a><a name=\"MA-67719001-en-US\"> </a><div style=\"display: inline-block; background-color: #d9e0e7; padding: 6px; margin: 4px; border: 1px solid #8da1b4; border-radius: 5px; line-height: 60%\"><p style=\"margin-bottom: 0px\"/><p style=\"margin-bottom: 0px\">Profile: <a href=\"StructureDefinition-ch-idmp-regulatedauthorization.html\">IDMP RegulatedAuthorization</a></p></div><p><b>identifier</b>: <code>http://SMC.ch/ig/idmp/NamingSystem/IDSystem-ch-MarketingAuthorisationNumber</code>/67719001</p><p><b>subject</b>: <a href=\"PackagedProductDefinition-PMP-Cuprior-150mg-Filmcoatedtablet.html\">PackagedProductDefinition: identifier = http://SMC.ch/ig/idmp/NamingSystem/IDSystem-ch-PCID#CH-7640109110007-6771901-001; containedItemQuantity = 72 Tablet; description = CUPRIOR Filmtabl 150 mg 72 Stk</a></p><p><b>type</b>: <span title=\"Codes:{http://fhir.ch/ig/ch-epl/CodeSystem/ch-authorisation-type 756000002001}\">Marketing Authorisation</span></p><p><b>region</b>: <span title=\"Codes:{urn:iso:std:iso:3166 CH}\">Switzerland</span></p><p><b>status</b>: <span title=\"Codes:{http://fhir.ch/ig/ch-epl/CodeSystem/ch-SMC-authorisation-status 756005023007}\">valid</span></p><p><b>statusDate</b>: 2021-01-21</p><p><b>holder</b>: <a href=\"#hcMA-67719001/holder-Curatis-AG\">Organization Curatis AG</a></p><p><b>regulator</b>: <a href=\"#hcMA-67719001/regulator-SMC\">Organization SMC</a></p><hr/><blockquote><p class=\"res-header-id\"><b>Generated Narrative: Organization #holder-Curatis-AG</b></p><a name=\"MA-67719001/holder-Curatis-AG\"> </a><a name=\"hcMA-67719001/holder-Curatis-AG\"> </a><a name=\"MA-67719001/holder-Curatis-AG-en-US\"> </a><div style=\"display: inline-block; background-color: #d9e0e7; padding: 6px; margin: 4px; border: 1px solid #8da1b4; border-radius: 5px; line-height: 60%\"><p style=\"margin-bottom: 0px\"/><p style=\"margin-bottom: 0px\">Profile: <a href=\"StructureDefinition-ch-epl-organization.html\">CH EPL Organization</a></p></div><p><b>identifier</b>: <a href=\"NamingSystem-LOC.html\" title=\"Identifier holding a number for LocID (Location Identifier of the European Medicines Agency - Organisation Management System OMS)\">LOC Identifier</a>/100082791, <a href=\"NamingSystem-GLN.html\" title=\"Identifier holding a number for GLN (Global Location Number)\">GLN Identifier</a>/7640109110007</p><p><b>name</b>: Curatis AG</p></blockquote><hr/><blockquote><p class=\"res-header-id\"><b>Generated Narrative: Organization #regulator-SMC</b></p><a name=\"MA-67719001/regulator-SMC\"> </a><a name=\"hcMA-67719001/regulator-SMC\"> </a><a name=\"MA-67719001/regulator-SMC-en-US\"> </a><div style=\"display: inline-block; background-color: #d9e0e7; padding: 6px; margin: 4px; border: 1px solid #8da1b4; border-radius: 5px; line-height: 60%\"><p style=\"margin-bottom: 0px\"/><p style=\"margin-bottom: 0px\">Profile: <a href=\"StructureDefinition-ch-epl-organization.html\">CH EPL Organization</a></p></div><p><b>identifier</b>: <a href=\"NamingSystem-LOC.html\" title=\"Identifier holding a number for LocID (Location Identifier of the European Medicines Agency - Organisation Management System OMS)\">LOC Identifier</a>/100010911, <a href=\"NamingSystem-GLN.html\" title=\"Identifier holding a number for GLN (Global Location Number)\">GLN Identifier</a>/7601001398511</p><p><b>name</b>: SMC</p></blockquote></div>"
  },
  "contained" : [{
    "resourceType" : "Organization",
    "id" : "holder-Curatis-AG",
    "meta" : {
      "profile" : ["http://fhir.ch/ig/ch-epl/StructureDefinition/ch-epl-organization"]
    },
    "identifier" : [{
      "system" : "urn:oid:1.2.276.0.76",
      "value" : "100082791"
    },
    {
      "system" : "urn:oid:2.51.1.3",
      "value" : "7640109110007"
    }],
    "name" : "Curatis AG"
  },
  {
    "resourceType" : "Organization",
    "id" : "regulator-SMC",
    "meta" : {
      "profile" : ["http://fhir.ch/ig/ch-epl/StructureDefinition/ch-epl-organization"]
    },
    "identifier" : [{
      "system" : "urn:oid:1.2.276.0.76",
      "value" : "100010911"
    },
    {
      "system" : "urn:oid:2.51.1.3",
      "value" : "7601001398511"
    }],
    "name" : "SMC"
  }],
  "identifier" : [{
    "system" : "http://SMC.ch/ig/idmp/NamingSystem/IDSystem-ch-MarketingAuthorisationNumber",
    "value" : "67719001"
  }],
  "subject" : [{
    "reference" : "PackagedProductDefinition/PMP-Cuprior-150mg-Filmcoatedtablet"
  }],
  "type" : {
    "coding" : [{
      "system" : "http://fhir.ch/ig/ch-epl/CodeSystem/ch-authorisation-type",
      "code" : "756000002001",
      "display" : "Marketing Authorisation"
    }]
  },
  "region" : [{
    "coding" : [{
      "system" : "urn:iso:std:iso:3166",
      "code" : "CH",
      "display" : "Switzerland"
    }]
  }],
  "status" : {
    "coding" : [{
      "system" : "http://fhir.ch/ig/ch-epl/CodeSystem/ch-SMC-authorisation-status",
      "code" : "756005023007",
      "display" : "valid"
    }]
  },
  "statusDate" : "2021-01-21",
  "holder" : {
    "reference" : "#holder-Curatis-AG"
  },
  "regulator" : {
    "reference" : "#regulator-SMC"
  }
}