<?xml version="1.0" encoding="UTF-8"?>

<RegulatedAuthorization xmlns="http://hl7.org/fhir">
  <id value="MA-68793001"/>
  <meta>
    <profile value="http://fhir.ch/ig/ch-epl/StructureDefinition/ch-idmp-regulatedauthorization"/>
  </meta>
  <text>
    <status value="generated"/><div xmlns="http://www.w3.org/1999/xhtml"><p class="res-header-id"><b>Generated Narrative: RegulatedAuthorization MA-68793001</b></p><a name="MA-68793001"> </a><a name="hcMA-68793001"> </a><a name="MA-68793001-en-US"> </a><div style="display: inline-block; background-color: #d9e0e7; padding: 6px; margin: 4px; border: 1px solid #8da1b4; border-radius: 5px; line-height: 60%"><p style="margin-bottom: 0px"/><p style="margin-bottom: 0px">Profile: <a href="StructureDefinition-ch-idmp-regulatedauthorization.html">IDMP RegulatedAuthorization</a></p></div><p><b>identifier</b>: <code>http://SMC.ch/ig/idmp/NamingSystem/IDSystem-ch-MarketingAuthorisationNumber</code>/68793001</p><p><b>subject</b>: <a href="MedicinalProductDefinition-Paxlovid-Filmcoatedtablet.html">MedicinalProductDefinition: extension = Film-coated tablet,Befristete Limitation bis 31.12.2025. PAXLOVID wird als antivirale Monotherapie für die Behandlung einer bestätigten Covid-19 Infektion (Positiver Erregernachweis Antigen/PCR und vorhandener Covid-19-Symptome) in folgenden Fällen vergütet:
 • in einer Dosierung von 300 mg Nirmatrelvir (zwei Tabletten zu je 150 mg) und 100 mg Ritonavir (eine Tablette zu 100 mg) zur gleichzeitigen Einnahme alle 12 Stunden, über einen Zeitraum von 5 Tagen
 • zur Frühbehandlung (ausser bei immunsupprimierten Personen vorzugsweise innerhalb von 5 Tagen nach Symptombeginn) bei Erwachsenen, die keine Sauerstofftherapie oder Hospitalisierung aufgrund von COVID-19 benötigen und für welche gemäss der aktuell gültigen Kriterienliste der Schweizerischen Gesellschaft für Infektiologie (SSI) (https://www.bag.admin.ch/bag/de/home/medizin-und-forschung/heilmittel/versorgung-covid-19-arzneimittel.html) ein erhöhtes Risiko für einen schweren COVID-19-Verlauf besteht.; identifier = http://SMC.ch/ig/idmp/NamingSystem/IDSystem-ch-MPID#CH-7601001010604-6879301; domain = Human; indication = Paxlovid wird angewendet für die Behandlung der Coronavirus-Krankheit 2019 (COVID-19) bei Erwachsenen, die keine Sauerstofftherapie oder Hospitalisierung aufgrund von COVID-19 benötigen und bei denen ein erhöhtes Risiko für einen schweren Verlauf von COVID-19 besteht (siehe «Klinische Wirksamkeit»).
Paxlovid ist nicht als Ersatz für eine Impfung gegen COVID-19 vorgesehen. Paxlovid sollte gemäss den offiziellen Empfehlungen und unter Berücksichtigung der lokalen epidemiologischen Daten zu zirkulierenden SARS-CoV-2-Varianten angewendet werden.; legalStatusOfSupply = Medicinal product subject to medical or veterinary prescription single dispensation (A+); additionalMonitoringIndicator = Black Triangle Warning; pediatricUseIndicator = Not authorised for the treatment in children; classification = Protease inhibitors,NA KAS art. 12 para. 5 TPLO,Synthetic,Originator product</a></p><p><b>type</b>: <span title="Codes:{http://fhir.ch/ig/ch-epl/CodeSystem/ch-authorisation-type 756000002001}">Marketing Authorisation</span></p><p><b>region</b>: <span title="Codes:{urn:iso:std:iso:3166 CH}">Switzerland</span></p><p><b>status</b>: <span title="Codes:{http://fhir.ch/ig/ch-epl/CodeSystem/ch-SMC-authorisation-status 756005023002}">limited authorisation</span></p><p><b>statusDate</b>: 2022-06-15</p><p><b>holder</b>: <a href="#hcMA-68793001/holder-Pfizer-AG">Organization Pfizer AG</a></p><p><b>regulator</b>: <a href="#hcMA-68793001/regulator-SMC">Organization SMC</a></p><hr/><blockquote><p class="res-header-id"><b>Generated Narrative: Organization #holder-Pfizer-AG</b></p><a name="MA-68793001/holder-Pfizer-AG"> </a><a name="hcMA-68793001/holder-Pfizer-AG"> </a><a name="MA-68793001/holder-Pfizer-AG-en-US"> </a><div style="display: inline-block; background-color: #d9e0e7; padding: 6px; margin: 4px; border: 1px solid #8da1b4; border-radius: 5px; line-height: 60%"><p style="margin-bottom: 0px"/><p style="margin-bottom: 0px">Profile: <a href="StructureDefinition-ch-epl-organization.html">CH EPL Organization</a></p></div><p><b>identifier</b>: <a href="NamingSystem-LOC.html" title="Identifier holding a number for LocID (Location Identifier of the European Medicines Agency - Organisation Management System OMS)">LOC Identifier</a>/100015286, <a href="NamingSystem-GLN.html" title="Identifier holding a number for GLN (Global Location Number)">GLN Identifier</a>/7601001010604</p><p><b>name</b>: Pfizer AG</p></blockquote><hr/><blockquote><p class="res-header-id"><b>Generated Narrative: Organization #regulator-SMC</b></p><a name="MA-68793001/regulator-SMC"> </a><a name="hcMA-68793001/regulator-SMC"> </a><a name="MA-68793001/regulator-SMC-en-US"> </a><div style="display: inline-block; background-color: #d9e0e7; padding: 6px; margin: 4px; border: 1px solid #8da1b4; border-radius: 5px; line-height: 60%"><p style="margin-bottom: 0px"/><p style="margin-bottom: 0px">Profile: <a href="StructureDefinition-ch-epl-organization.html">CH EPL Organization</a></p></div><p><b>identifier</b>: <a href="NamingSystem-LOC.html" title="Identifier holding a number for LocID (Location Identifier of the European Medicines Agency - Organisation Management System OMS)">LOC Identifier</a>/100010911, <a href="NamingSystem-GLN.html" title="Identifier holding a number for GLN (Global Location Number)">GLN Identifier</a>/7601001398511</p><p><b>name</b>: SMC</p></blockquote></div>
  </text>
  <contained>
    <Organization>
      <id value="holder-Pfizer-AG"/>
      <meta>
        <profile value="http://fhir.ch/ig/ch-epl/StructureDefinition/ch-epl-organization"/>
      </meta>
      <identifier>
        <system value="urn:oid:1.2.276.0.76"/>
        <value value="100015286"/>
      </identifier>
      <identifier>
        <system value="urn:oid:2.51.1.3"/>
        <value value="7601001010604"/>
      </identifier>
      <name value="Pfizer AG"/>
    </Organization>
  </contained>
  <contained>
    <Organization>
      <id value="regulator-SMC"/>
      <meta>
        <profile value="http://fhir.ch/ig/ch-epl/StructureDefinition/ch-epl-organization"/>
      </meta>
      <identifier>
        <system value="urn:oid:1.2.276.0.76"/>
        <value value="100010911"/>
      </identifier>
      <identifier>
        <system value="urn:oid:2.51.1.3"/>
        <value value="7601001398511"/>
      </identifier>
      <name value="SMC"/>
    </Organization>
  </contained>
  <identifier>
    <system value="http://SMC.ch/ig/idmp/NamingSystem/IDSystem-ch-MarketingAuthorisationNumber"/>
    <value value="68793001"/>
  </identifier>
  <subject>
    <reference value="MedicinalProductDefinition/Paxlovid-Filmcoatedtablet"/>
  </subject>
  <type>
    <coding>
      <system value="http://fhir.ch/ig/ch-epl/CodeSystem/ch-authorisation-type"/>
      <code value="756000002001"/>
      <display value="Marketing Authorisation"/>
    </coding>
  </type>
  <region>
    <coding>
      <system value="urn:iso:std:iso:3166"/>
      <code value="CH"/>
      <display value="Switzerland"/>
    </coding>
  </region>
  <status>
    <coding>
      <system value="http://fhir.ch/ig/ch-epl/CodeSystem/ch-SMC-authorisation-status"/>
      <code value="756005023002"/>
      <display value="limited authorisation"/>
    </coding>
  </status>
  <statusDate value="2022-06-15"/>
  <holder>
    <reference value="#holder-Pfizer-AG"/>
  </holder>
  <regulator>
    <reference value="#regulator-SMC"/>
  </regulator>
</RegulatedAuthorization>