<?xml version="1.0" encoding="UTF-8"?>

<Bundle xmlns="http://hl7.org/fhir">
  <id value="UC2-Document"/>
  <language value="de-CH"/>
  <identifier>
    <system value="urn:ietf:rfc:3986"/>
    <value value="urn:uuid:658f9dd5-8034-4ba4-b7ce-d3f0f6ebb2a7"/>
  </identifier>
  <type value="document"/>
  <timestamp value="2025-03-27T14:11:00+01:00"/>
  <entry>
    <fullUrl value="urn:uuid:7c4e431a-6222-475f-9593-764b79316afa"/>
    <resource>
      <Composition>
        <id value="7c4e431a-6222-475f-9593-764b79316afa"/>
        <language value="de-CH"/>
        <text>
          <status value="generated"/><div xmlns="http://www.w3.org/1999/xhtml" xml:lang="de-CH" lang="de-CH"><a name="Composition_7c4e431a-6222-475f-9593-764b79316afa"> </a><p class="res-header-id"><b>Generated Narrative: Composition 7c4e431a-6222-475f-9593-764b79316afa</b></p><a name="7c4e431a-6222-475f-9593-764b79316afa"> </a><a name="hc7c4e431a-6222-475f-9593-764b79316afa"> </a><a name="7c4e431a-6222-475f-9593-764b79316afa-en-US"> </a><div style="display: inline-block; background-color: #d9e0e7; padding: 6px; margin: 4px; border: 1px solid #8da1b4; border-radius: 5px; line-height: 60%"><p style="margin-bottom: 0px">Language: de-CH</p></div><p><b>identifier</b>: <a href="http://terminology.hl7.org/6.2.0/NamingSystem-uri.html" title="As defined by RFC 3986 (http://www.ietf.org/rfc/rfc3986.txt)(with many schemes defined in many RFCs). For OIDs and UUIDs, use the URN form (urn:oid:(note: lowercase) and urn:uuid:). See http://www.ietf.org/rfc/rfc3001.txt and http://www.ietf.org/rfc/rfc4122.txt 

This oid is used as an identifier II.root to indicate the the extension is an absolute URI (technically, an IRI). Typically, this is used for OIDs and GUIDs. Note that when this OID is used with OIDs and GUIDs, the II.extension should start with urn:oid or urn:uuid: 

Note that this OID is created to aid with interconversion between CDA and FHIR - FHIR uses urn:ietf:rfc:3986 as equivalent to this OID. URIs as identifiers appear more commonly in FHIR.

This OID may also be used in CD.codeSystem.">Uniform Resource Identifier (URI)</a>/urn:uuid:658f9dd5-8034-4ba4-b7ce-d3f0f6ebb2a7</p><p><b>status</b>: Final</p><p><b>type</b>: <span title="Codes:{http://snomed.info/sct 736377005}">Maternity care plan (record artifact)</span></p><p><b>date</b>: 2025-03-27 14:11:00+0100</p><p><b>author</b>: <a href="Bundle-UC2-Document.html#urn-uuid-89029102-999c-4b69-a836-e4dbfbd55527">Tanja Allesgut @ Geburtsklinik</a></p><p><b>title</b>: Schwangerschaftspass</p><p><b>confidentiality</b>: normal</p></div>
        </text>
        <identifier>
          <system value="urn:ietf:rfc:3986"/>
          <value value="urn:uuid:658f9dd5-8034-4ba4-b7ce-d3f0f6ebb2a7"/>
        </identifier>
        <status value="final"/>
        <type>
          <coding>
            <system value="http://snomed.info/sct"/>
            <code value="736377005"/>
            <display value="Maternity care plan (record artifact)"/>
          </coding>
        </type>
        <subject>
          <reference value="urn:uuid:76c2c5aa-3d7f-438d-b23d-56ce827695fd"/>
          <display value="Fabienne Babyglück"/>
        </subject>
        <date value="2025-03-27T14:11:00+01:00"/>
        <author>
          <reference value="urn:uuid:89029102-999c-4b69-a836-e4dbfbd55527"/>
          <display value="Tanja Allesgut @ Geburtsklinik"/>
        </author>
        <title value="Schwangerschaftspass"/>
        <confidentiality value="N">
          <extension url="http://fhir.ch/ig/ch-core/StructureDefinition/ch-ext-epr-confidentialitycode">
            <valueCodeableConcept>
              <coding>
                <system value="http://snomed.info/sct"/>
                <code value="17621005"/>
                <display value="Normal (qualifier value)"/>
              </coding>
            </valueCodeableConcept>
          </extension>
        </confidentiality>
        <section>
          <title value="Stammdaten"/>
          <code>
            <coding>
              <system value="http://loinc.org"/>
              <code value="86638-4"/>
              <display value="Patient demographic and administrative information panel [FPAR]"/>
            </coding>
          </code>
          <section>
            <title value="Behandelnde Leistungserbringende"/>
            <code>
              <coding>
                <system value="http://loinc.org"/>
                <code value="85847-2"/>
                <display value="Patient Care team information"/>
              </coding>
            </code>
            <text>
              <status value="generated"/><div xmlns="http://www.w3.org/1999/xhtml"><p><b>Gynäkologin:</b> Tanja Allesgut, Geburtsklinik 'Willkommen auf der Welt'</p><p><b>Hebamme:</b> Ruth Ohazwei, Geburtsklinik 'Willkommen auf der Welt'</p></div>
            </text>
            <entry>
              <reference value="urn:uuid:89029102-999c-4b69-a836-e4dbfbd55527"/>
              <display value="Tanja Allesgut @ Geburtsklinik"/>
            </entry>
            <entry>
              <reference value="urn:uuid:e1b736e3-10bb-41aa-8d17-c7ba28895880"/>
              <display value="Ruth Ohazwei @ Geburtsklinik"/>
            </entry>
          </section>
        </section>
        <section>
          <title value="Serologische- &amp; Laboruntersuchungen"/>
          <code>
            <coding>
              <system value="http://loinc.org"/>
              <code value="26436-6"/>
              <display value="Laboratory studies (set)"/>
            </coding>
          </code>
          <section>
            <title value="Klinische Chemie"/>
            <code>
              <coding>
                <system value="http://loinc.org"/>
                <code value="18719-5"/>
                <display value="Chemistry studies (set)"/>
              </coding>
            </code>
            <text>
              <status value="generated"/><div xmlns="http://www.w3.org/1999/xhtml"><ul><li>Glucose: 3.9 mmol/l, 27.03.2025</li></ul></div>
            </text>
            <entry>
              <reference value="urn:uuid:b9145a94-ea12-479b-a031-b07d4ac9f297"/>
              <display value="Glucose 3.9 mmol/l, 27.03.2025"/>
            </entry>
          </section>
        </section>
        <section>
          <title value="Schwangerschaftsverlauf"/>
          <code>
            <coding>
              <system value="http://loinc.org"/>
              <code value="57059-8"/>
              <display value="Pregnancy visit summary note Narrative"/>
            </coding>
          </code>
          <text>
            <status value="generated"/><div xmlns="http://www.w3.org/1999/xhtml"><b>Untersuchung vom 27.03.2025</b><ul><li>SSW: 32</li><li>Gewicht: 65 kg</li><li>Blutdruck: 160/60 mmHg</li><li>Urin: bland</li><li>Fundusstand: Rb/2</li><li>Vaginalbefund: MM 5 cm</li><li>Kindsbewegung: schwach</li><li>Herztöne: 110 /min</li><li>Kindslage: Steisslage</li><li>Weitere Untersuchungen: BZ (Teststreifen Finger): 3.9 mmol/l</li></ul><b>Untersuchung vom 26.03.2025</b><ul><li>SSW: 32</li><li>Gewicht: 65.1 kg</li><li>Blutdruck: 122/83 mmHg</li><li>Kindslage: Steisslage</li><li>Weitere Untersuchungen: BZ (Teststreifen Finger): 4.7 mmol/l, Verdauung: Sodbrennen</li><li>Nächste Kontrolle am: 02.04.2025</li></ul></div>
          </text>
          <entry>
            <reference value="urn:uuid:4b9ca365-383e-41c8-9bac-b3c79aea1c7e"/>
            <display value="Weitere Untersuchungen: BZ 3.9 mmol/l, 27.03.2025"/>
          </entry>
          <entry>
            <reference value="urn:uuid:bbd6f1bc-1d87-4c90-a313-98bea06c3dfb"/>
            <display value="Weitere Untersuchungen: BZ 4.7 mmol/l, 26.03.2025"/>
          </entry>
          <entry>
            <reference value="urn:uuid:1ce882f2-953f-428e-a90b-a55271020fca"/>
            <display value="Weitere Untersuchungen: Sodbrennen, 26.03.2025"/>
          </entry>
          <entry>
            <reference value="urn:uuid:1ba6df42-ae1a-4b4a-886f-33d6b2223b1f"/>
            <display value="Untersuchung Mutter, 27.03.2025"/>
          </entry>
          <entry>
            <reference value="urn:uuid:8e89c502-964f-4234-9728-540d881b0380"/>
            <display value="Untersuchung Mutter, 26.03.2025"/>
          </entry>
          <entry>
            <reference value="urn:uuid:833fd8f2-b75f-4dba-990f-6c46aa468d51"/>
            <display value="Untersuchung Kind, 27.03.2025"/>
          </entry>
          <entry>
            <reference value="urn:uuid:22aeb067-85f9-4b3b-9301-161604005206"/>
            <display value="Untersuchung Kind, 26.03.2025"/>
          </entry>
          <entry>
            <reference value="urn:uuid:84869994-4348-4ad3-95ee-d9b0faf75dba"/>
            <display value="SSW 32, 27.03.2025"/>
          </entry>
          <entry>
            <reference value="urn:uuid:2f167f2f-44f7-49e3-a970-d7f7a6573cd3"/>
            <display value="SSW 32, 26.03.2025"/>
          </entry>
          <entry>
            <reference value="urn:uuid:e1c73669-f935-47d1-9dcd-fab76a38bdb7"/>
            <display value="Gewicht 65 kg, 27.03.2025"/>
          </entry>
          <entry>
            <reference value="urn:uuid:f339e056-53d6-4247-9226-5339123fbd14"/>
            <display value="Gewicht 65 kg, 26.03.2025"/>
          </entry>
          <entry>
            <reference value="urn:uuid:4268bd90-eff8-41f4-a7b4-2178dac0e470"/>
            <display value="Blutdruck 160/60 mmHg, 27.03.2025"/>
          </entry>
          <entry>
            <reference value="urn:uuid:e949f912-fc27-4849-8632-09caad9fe897"/>
            <display value="Blutdruck 122/83 mmHg, 26.03.2025"/>
          </entry>
          <entry>
            <reference value="urn:uuid:2db81543-7bf1-4965-a75e-00400c62e78b"/>
            <display value="Urin bland, 27.03.2025"/>
          </entry>
          <entry>
            <reference value="urn:uuid:6eafd07b-c40a-4864-874c-cfe2d5b222ed"/>
            <display value="Fundusstand Rb/2, 27.03.2025"/>
          </entry>
          <entry>
            <reference value="urn:uuid:c9bba019-9ed9-4574-84e2-f7d302e8f5d0"/>
            <display value="Vaginalbefund MM 5 cm, 27.03.2025"/>
          </entry>
          <entry>
            <reference value="urn:uuid:3e120206-7aa2-4ced-82c3-3704868e023f"/>
            <display value="Kindsbewegung schwach, 27.03.2025"/>
          </entry>
          <entry>
            <reference value="urn:uuid:d0b53779-fde0-4780-9ff4-9ba2a4cf9393"/>
            <display value="Herztöne 110 /min, 27.03.2025"/>
          </entry>
          <entry>
            <reference value="urn:uuid:a5c14df0-3dca-4530-a22a-072af14178b1"/>
            <display value="Kindslage Steisslage, 27.03.2025"/>
          </entry>
          <entry>
            <reference value="urn:uuid:4a907770-6665-4fb4-b186-afd0ddf48742"/>
            <display value="Kindslage Steisslage, 26.03.2025"/>
          </entry>
        </section>
      </Composition>
    </resource>
  </entry>
  <entry>
    <fullUrl value="urn:uuid:76c2c5aa-3d7f-438d-b23d-56ce827695fd"/>
    <resource>
      <Patient>
        <id value="76c2c5aa-3d7f-438d-b23d-56ce827695fd"/>
        <language value="de-CH"/>
        <text>
          <status value="generated"/><div xmlns="http://www.w3.org/1999/xhtml" xml:lang="de-CH" lang="de-CH"><a name="Patient_76c2c5aa-3d7f-438d-b23d-56ce827695fd"> </a><p class="res-header-id"><b>Generated Narrative: Patient 76c2c5aa-3d7f-438d-b23d-56ce827695fd</b></p><a name="76c2c5aa-3d7f-438d-b23d-56ce827695fd"> </a><a name="hc76c2c5aa-3d7f-438d-b23d-56ce827695fd"> </a><a name="76c2c5aa-3d7f-438d-b23d-56ce827695fd-en-US"> </a><div style="display: inline-block; background-color: #d9e0e7; padding: 6px; margin: 4px; border: 1px solid #8da1b4; border-radius: 5px; line-height: 60%"><p style="margin-bottom: 0px">Language: de-CH</p></div><p style="border: 1px #661aff solid; background-color: #e6e6ff; padding: 10px;">Frau Fabienne Babyglück Female, DoB: 1999-05-10 ( urn:oid:2.16.756.5.30.1.123.100.1.1.1#80756098765432100000)</p><hr/><table class="grid"><tr><td style="background-color: #f3f5da" title="Ways to contact the Patient">Contact Detail</td><td colspan="3"><ul><li><a href="mailto:fabienne.babyglueck@example.com">fabienne.babyglueck@example.com</a></li><li><a href="tel:+41666666666">+41 66 666 66 66</a></li><li><a href="tel:+41799876543">+41 79 987 65 43</a></li><li><a href="tel:+41434343434">+41 43 434 34 34</a></li><li>Mustergasse 1 Zürich 8000 Schweiz </li></ul></td></tr><tr><td style="background-color: #f3f5da" title="Language spoken">Language:</td><td colspan="3"><span title="Codes:{urn:ietf:bcp:47 de-CH}">German (Switzerland)</span> (preferred)</td></tr><tr><td style="background-color: #f3f5da" title="Nominated Contact: guardian">guardian:</td><td colspan="3"><ul><li>Marius Beistand </li><li><a href="mailto:marius.beistand@example.com">marius.beistand@example.com</a></li><li><a href="tel:+41999999999">+41 99 999 99 99</a></li><li><a href="tel:+41797777777">+41 79 777 77 77</a></li><li><a href="tel:+41888888888">+41 88 888 88 88</a></li></ul></td></tr><tr><td style="background-color: #f3f5da" title="Patient Links">Links:</td><td colspan="3"><ul><li>Also see: <a href="Bundle-UC2-Document.html#urn-uuid-67d0e290-21b9-4255-9182-5fe9f21cdbb4">RelatedPerson Fabienne Babyglück</a></li></ul></td></tr><tr><td style="background-color: #f3f5da" title="The pronouns to use when referring to an individual in verbal or written communication.">Individual Pronouns:</td><td colspan="3"><ul><li>value: <span title="Codes:{http://loinc.org LA29519-8}">she/her/her/hers/herself</span></li></ul></td></tr><tr><td style="background-color: #f3f5da" title="The patient's legal status as citizen of a country.">Patient Citizenship:</td><td colspan="3"><ul><li>code: <span title="Codes:{urn:iso:std:iso:3166 CH}">Switzerland</span></li></ul></td></tr></table></div>
        </text>
        <extension url="http://hl7.org/fhir/StructureDefinition/patient-citizenship">
          <extension url="code">
            <valueCodeableConcept>
              <coding>
                <system value="urn:iso:std:iso:3166"/>
                <code value="CH"/>
                <display value="Switzerland"/>
              </coding>
            </valueCodeableConcept>
          </extension>
        </extension>
        <extension url="http://hl7.org/fhir/StructureDefinition/individual-pronouns">
          <extension url="value">
            <valueCodeableConcept>
              <coding>
                <system value="http://loinc.org"/>
                <code value="LA29519-8"/>
                <display value="she/her/her/hers/herself"/>
              </coding>
            </valueCodeableConcept>
          </extension>
        </extension>
        <identifier>
          <system value="urn:oid:2.16.756.5.30.1.123.100.1.1.1"/>
          <value value="80756098765432100000"/>
        </identifier>
        <name>
          <text value="Frau Fabienne Babyglück"/>
          <family value="Babyglück"/>
          <given value="Fabienne"/>
          <prefix value="Frau"/>
        </name>
        <telecom>
          <system value="email"/>
          <value value="fabienne.babyglueck@example.com"/>
        </telecom>
        <telecom>
          <system value="phone"/>
          <value value="+41 66 666 66 66"/>
          <use value="home"/>
        </telecom>
        <telecom>
          <system value="phone"/>
          <value value="+41 79 987 65 43"/>
          <use value="mobile"/>
        </telecom>
        <telecom>
          <system value="phone"/>
          <value value="+41 43 434 34 34"/>
          <use value="work"/>
        </telecom>
        <gender value="female"/>
        <birthDate value="1999-05-10"/>
        <address>
          <line value="Mustergasse 1"/>
          <city value="Zürich"/>
          <postalCode value="8000"/>
          <country value="Schweiz"/>
        </address>
        <contact>
          <extension url="http://fhir.ch/ig/ch-epreg/StructureDefinition/ch-epreg-ext-note">
            <valueString value="Beistand/Vormund von Fabienne Babyglück"/>
          </extension>
          <relationship>
            <coding>
              <system value="http://terminology.hl7.org/CodeSystem/v3-RoleCode"/>
              <code value="GUARD"/>
              <display value="guardian"/>
            </coding>
          </relationship>
          <name>
            <family value="Beistand"/>
            <given value="Marius"/>
          </name>
          <telecom>
            <system value="email"/>
            <value value="marius.beistand@example.com"/>
          </telecom>
          <telecom>
            <system value="phone"/>
            <value value="+41 99 999 99 99"/>
            <use value="home"/>
          </telecom>
          <telecom>
            <system value="phone"/>
            <value value="+41 79 777 77 77"/>
            <use value="mobile"/>
          </telecom>
          <telecom>
            <system value="phone"/>
            <value value="+41 88 888 88 88"/>
            <use value="work"/>
          </telecom>
        </contact>
        <communication>
          <language>
            <coding>
              <system value="urn:ietf:bcp:47"/>
              <code value="de-CH"/>
              <display value="German (Switzerland)"/>
            </coding>
          </language>
          <preferred value="true"/>
        </communication>
        <link>
          <other>
            <reference value="urn:uuid:67d0e290-21b9-4255-9182-5fe9f21cdbb4"/>
            <display value="RelatedPerson Fabienne Babyglück"/>
          </other>
          <type value="seealso"/>
        </link>
      </Patient>
    </resource>
  </entry>
  <entry>
    <fullUrl value="urn:uuid:67d0e290-21b9-4255-9182-5fe9f21cdbb4"/>
    <resource>
      <RelatedPerson>
        <id value="67d0e290-21b9-4255-9182-5fe9f21cdbb4"/>
        <language value="de-CH"/>
        <text>
          <status value="generated"/><div xmlns="http://www.w3.org/1999/xhtml" xml:lang="de-CH" lang="de-CH"><a name="RelatedPerson_67d0e290-21b9-4255-9182-5fe9f21cdbb4"> </a><p class="res-header-id"><b>Generated Narrative: RelatedPerson 67d0e290-21b9-4255-9182-5fe9f21cdbb4</b></p><a name="67d0e290-21b9-4255-9182-5fe9f21cdbb4"> </a><a name="hc67d0e290-21b9-4255-9182-5fe9f21cdbb4"> </a><a name="67d0e290-21b9-4255-9182-5fe9f21cdbb4-en-US"> </a><div style="display: inline-block; background-color: #d9e0e7; padding: 6px; margin: 4px; border: 1px solid #8da1b4; border-radius: 5px; line-height: 60%"><p style="margin-bottom: 0px">Language: de-CH</p></div><p><b>patient</b>: <a href="Bundle-UC2-Document.html#urn-uuid-111d5e66-f17e-4369-90c6-9382e566040e">Kind</a></p><p><b>relationship</b>: <span title="Codes:{http://snomed.info/sct 65656005}">Natural mother (person)</span></p></div>
        </text>
        <patient>
          <reference value="urn:uuid:111d5e66-f17e-4369-90c6-9382e566040e"/>
          <display value="Kind"/>
        </patient>
        <relationship>
          <coding>
            <system value="http://snomed.info/sct"/>
            <code value="65656005"/>
            <display value="Natural mother (person)"/>
          </coding>
        </relationship>
      </RelatedPerson>
    </resource>
  </entry>
  <entry>
    <fullUrl value="urn:uuid:111d5e66-f17e-4369-90c6-9382e566040e"/>
    <resource>
      <Patient>
        <id value="111d5e66-f17e-4369-90c6-9382e566040e"/>
        <language value="de-CH"/>
        <text>
          <status value="generated"/><div xmlns="http://www.w3.org/1999/xhtml" xml:lang="de-CH" lang="de-CH"><a name="Patient_111d5e66-f17e-4369-90c6-9382e566040e"> </a><p class="res-header-id"><b>Generated Narrative: Patient 111d5e66-f17e-4369-90c6-9382e566040e</b></p><a name="111d5e66-f17e-4369-90c6-9382e566040e"> </a><a name="hc111d5e66-f17e-4369-90c6-9382e566040e"> </a><a name="111d5e66-f17e-4369-90c6-9382e566040e-en-US"> </a><div style="display: inline-block; background-color: #d9e0e7; padding: 6px; margin: 4px; border: 1px solid #8da1b4; border-radius: 5px; line-height: 60%"><p style="margin-bottom: 0px">Language: de-CH</p></div><p style="border: 1px #661aff solid; background-color: #e6e6ff; padding: 10px;">Anonymous Patient (no stated gender), DoB Unknown ( Patient internal identifier: A)</p><hr/></div>
        </text>
        <identifier>
          <type>
            <coding>
              <system value="http://terminology.hl7.org/CodeSystem/v2-0203"/>
              <code value="PI"/>
              <display value="Patient internal identifier"/>
            </coding>
          </type>
          <system value="http://example.com/identifiers/child"/>
          <value value="A"/>
        </identifier>
      </Patient>
    </resource>
  </entry>
  <entry>
    <fullUrl value="urn:uuid:89029102-999c-4b69-a836-e4dbfbd55527"/>
    <resource>
      <PractitionerRole>
        <id value="89029102-999c-4b69-a836-e4dbfbd55527"/>
        <language value="de-CH"/>
        <text>
          <status value="generated"/><div xmlns="http://www.w3.org/1999/xhtml" xml:lang="de-CH" lang="de-CH"><a name="PractitionerRole_89029102-999c-4b69-a836-e4dbfbd55527"> </a><p class="res-header-id"><b>Generated Narrative: PractitionerRole 89029102-999c-4b69-a836-e4dbfbd55527</b></p><a name="89029102-999c-4b69-a836-e4dbfbd55527"> </a><a name="hc89029102-999c-4b69-a836-e4dbfbd55527"> </a><a name="89029102-999c-4b69-a836-e4dbfbd55527-en-US"> </a><div style="display: inline-block; background-color: #d9e0e7; padding: 6px; margin: 4px; border: 1px solid #8da1b4; border-radius: 5px; line-height: 60%"><p style="margin-bottom: 0px">Language: de-CH</p></div><p><b>practitioner</b>: <a href="Bundle-UC2-Document.html#urn-uuid-a61d6a0b-ee42-443e-92e5-167d2e42f137">Tanja Allesgut</a></p><p><b>organization</b>: <a href="Bundle-UC2-Document.html#urn-uuid-fbe019f1-6574-40be-940f-d03da0c743db">Geburtsklinik</a></p><p><b>code</b>: <span title="Codes:{http://snomed.info/sct 309343006}">Arzt / Ärztin</span></p><p><b>specialty</b>: <span title="Codes:{urn:oid:2.16.756.5.30.1.127.3.5 1003}">Gynäkologie und Geburtshilfe</span></p></div>
        </text>
        <practitioner>
          <reference value="urn:uuid:a61d6a0b-ee42-443e-92e5-167d2e42f137"/>
          <display value="Tanja Allesgut"/>
        </practitioner>
        <organization>
          <reference value="urn:uuid:fbe019f1-6574-40be-940f-d03da0c743db"/>
          <display value="Geburtsklinik"/>
        </organization>
        <code>
          <coding>
            <system value="http://snomed.info/sct"/>
            <code value="309343006"/>
            <display value="Arzt / Ärztin"/>
          </coding>
        </code>
        <specialty>
          <coding>
            <system value="urn:oid:2.16.756.5.30.1.127.3.5"/>
            <code value="1003"/>
            <display value="Gynäkologie und Geburtshilfe"/>
          </coding>
        </specialty>
      </PractitionerRole>
    </resource>
  </entry>
  <entry>
    <fullUrl value="urn:uuid:a61d6a0b-ee42-443e-92e5-167d2e42f137"/>
    <resource>
      <Practitioner>
        <id value="a61d6a0b-ee42-443e-92e5-167d2e42f137"/>
        <language value="de-CH"/>
        <text>
          <status value="generated"/><div xmlns="http://www.w3.org/1999/xhtml" xml:lang="de-CH" lang="de-CH"><a name="Practitioner_a61d6a0b-ee42-443e-92e5-167d2e42f137"> </a><p class="res-header-id"><b>Generated Narrative: Practitioner a61d6a0b-ee42-443e-92e5-167d2e42f137</b></p><a name="a61d6a0b-ee42-443e-92e5-167d2e42f137"> </a><a name="hca61d6a0b-ee42-443e-92e5-167d2e42f137"> </a><a name="a61d6a0b-ee42-443e-92e5-167d2e42f137-en-US"> </a><div style="display: inline-block; background-color: #d9e0e7; padding: 6px; margin: 4px; border: 1px solid #8da1b4; border-radius: 5px; line-height: 60%"><p style="margin-bottom: 0px">Language: de-CH</p></div><p><b>identifier</b>: <a href="https://www.gs1.org/standards/id-keys/gln" title="Global Location Number">GLN</a>/7601002322553</p><p><b>name</b>: Tanja Allesgut </p></div>
        </text>
        <identifier>
          <system value="urn:oid:2.51.1.3"/>
          <value value="7601002322553"/>
        </identifier>
        <name>
          <family value="Allesgut"/>
          <given value="Tanja"/>
          <prefix value="Dr. med."/>
        </name>
      </Practitioner>
    </resource>
  </entry>
  <entry>
    <fullUrl value="urn:uuid:fbe019f1-6574-40be-940f-d03da0c743db"/>
    <resource>
      <Organization>
        <id value="fbe019f1-6574-40be-940f-d03da0c743db"/>
        <language value="de-CH"/>
        <text>
          <status value="generated"/><div xmlns="http://www.w3.org/1999/xhtml" xml:lang="de-CH" lang="de-CH"><a name="Organization_fbe019f1-6574-40be-940f-d03da0c743db"> </a><p class="res-header-id"><b>Generated Narrative: Organization fbe019f1-6574-40be-940f-d03da0c743db</b></p><a name="fbe019f1-6574-40be-940f-d03da0c743db"> </a><a name="hcfbe019f1-6574-40be-940f-d03da0c743db"> </a><a name="fbe019f1-6574-40be-940f-d03da0c743db-en-US"> </a><div style="display: inline-block; background-color: #d9e0e7; padding: 6px; margin: 4px; border: 1px solid #8da1b4; border-radius: 5px; line-height: 60%"><p style="margin-bottom: 0px">Language: de-CH</p></div><p><b>name</b>: Geburtsklinik 'Willkommen auf der Welt'</p><p><b>telecom</b>: <a href="mailto:geburtsklinik@example.com">geburtsklinik@example.com</a>, <a href="tel:+41795555555">+41 79 555 55 55</a>, <a href="tel:+41555555555">+41 55 555 55 55</a></p><p><b>address</b>: Klinikstrasse 1 Musterhausen 8888 Schweiz </p></div>
        </text>
        <name value="Geburtsklinik 'Willkommen auf der Welt'"/>
        <telecom>
          <system value="email"/>
          <value value="geburtsklinik@example.com"/>
        </telecom>
        <telecom>
          <system value="phone"/>
          <value value="+41 79 555 55 55"/>
          <use value="mobile"/>
        </telecom>
        <telecom>
          <system value="phone"/>
          <value value="+41 55 555 55 55"/>
          <use value="work"/>
        </telecom>
        <address>
          <line value="Klinikstrasse 1"/>
          <city value="Musterhausen"/>
          <postalCode value="8888"/>
          <country value="Schweiz"/>
        </address>
      </Organization>
    </resource>
  </entry>
  <entry>
    <fullUrl value="urn:uuid:e1b736e3-10bb-41aa-8d17-c7ba28895880"/>
    <resource>
      <PractitionerRole>
        <id value="e1b736e3-10bb-41aa-8d17-c7ba28895880"/>
        <language value="de-CH"/>
        <text>
          <status value="generated"/><div xmlns="http://www.w3.org/1999/xhtml" xml:lang="de-CH" lang="de-CH"><a name="PractitionerRole_e1b736e3-10bb-41aa-8d17-c7ba28895880"> </a><p class="res-header-id"><b>Generated Narrative: PractitionerRole e1b736e3-10bb-41aa-8d17-c7ba28895880</b></p><a name="e1b736e3-10bb-41aa-8d17-c7ba28895880"> </a><a name="hce1b736e3-10bb-41aa-8d17-c7ba28895880"> </a><a name="e1b736e3-10bb-41aa-8d17-c7ba28895880-en-US"> </a><div style="display: inline-block; background-color: #d9e0e7; padding: 6px; margin: 4px; border: 1px solid #8da1b4; border-radius: 5px; line-height: 60%"><p style="margin-bottom: 0px">Language: de-CH</p></div><p><b>practitioner</b>: <a href="Bundle-UC2-Document.html#urn-uuid-c314ae56-7edb-4ef9-b38a-216c9a979374">Ruth Ohazwei</a></p><p><b>organization</b>: <a href="Bundle-UC2-Document.html#urn-uuid-fbe019f1-6574-40be-940f-d03da0c743db">Geburtsklinik</a></p><p><b>code</b>: <span title="Codes:{http://snomed.info/sct 309453006}">Registrierte Hebamme</span></p></div>
        </text>
        <practitioner>
          <reference value="urn:uuid:c314ae56-7edb-4ef9-b38a-216c9a979374"/>
          <display value="Ruth Ohazwei"/>
        </practitioner>
        <organization>
          <reference value="urn:uuid:fbe019f1-6574-40be-940f-d03da0c743db"/>
          <display value="Geburtsklinik"/>
        </organization>
        <code>
          <coding>
            <system value="http://snomed.info/sct"/>
            <code value="309453006"/>
            <display value="Registrierte Hebamme"/>
          </coding>
        </code>
      </PractitionerRole>
    </resource>
  </entry>
  <entry>
    <fullUrl value="urn:uuid:c314ae56-7edb-4ef9-b38a-216c9a979374"/>
    <resource>
      <Practitioner>
        <id value="c314ae56-7edb-4ef9-b38a-216c9a979374"/>
        <language value="de-CH"/>
        <text>
          <status value="generated"/><div xmlns="http://www.w3.org/1999/xhtml" xml:lang="de-CH" lang="de-CH"><a name="Practitioner_c314ae56-7edb-4ef9-b38a-216c9a979374"> </a><p class="res-header-id"><b>Generated Narrative: Practitioner c314ae56-7edb-4ef9-b38a-216c9a979374</b></p><a name="c314ae56-7edb-4ef9-b38a-216c9a979374"> </a><a name="hcc314ae56-7edb-4ef9-b38a-216c9a979374"> </a><a name="c314ae56-7edb-4ef9-b38a-216c9a979374-en-US"> </a><div style="display: inline-block; background-color: #d9e0e7; padding: 6px; margin: 4px; border: 1px solid #8da1b4; border-radius: 5px; line-height: 60%"><p style="margin-bottom: 0px">Language: de-CH</p></div><p><b>identifier</b>: <a href="https://www.gs1.org/standards/id-keys/gln" title="Global Location Number">GLN</a>/7601000234322</p><p><b>name</b>: Ruth Ohazwei </p></div>
        </text>
        <identifier>
          <system value="urn:oid:2.51.1.3"/>
          <value value="7601000234322"/>
        </identifier>
        <name>
          <family value="Ohazwei"/>
          <given value="Ruth"/>
        </name>
      </Practitioner>
    </resource>
  </entry>
  <entry>
    <fullUrl value="urn:uuid:b9145a94-ea12-479b-a031-b07d4ac9f297"/>
    <resource>
      <Observation>
        <id value="b9145a94-ea12-479b-a031-b07d4ac9f297"/>
        <language value="de-CH"/>
        <text>
          <status value="generated"/><div xmlns="http://www.w3.org/1999/xhtml" xml:lang="de-CH" lang="de-CH"><a name="Observation_b9145a94-ea12-479b-a031-b07d4ac9f297"> </a><p class="res-header-id"><b>Generated Narrative: Observation b9145a94-ea12-479b-a031-b07d4ac9f297</b></p><a name="b9145a94-ea12-479b-a031-b07d4ac9f297"> </a><a name="hcb9145a94-ea12-479b-a031-b07d4ac9f297"> </a><a name="b9145a94-ea12-479b-a031-b07d4ac9f297-en-US"> </a><div style="display: inline-block; background-color: #d9e0e7; padding: 6px; margin: 4px; border: 1px solid #8da1b4; border-radius: 5px; line-height: 60%"><p style="margin-bottom: 0px">Language: de-CH</p></div><p><b>status</b>: Final</p><p><b>category</b>: <span title="Codes:{http://terminology.hl7.org/CodeSystem/observation-category laboratory}">Laboratory</span></p><p><b>code</b>: <span title="Codes:{http://loinc.org 14771-0}">Fasting glucose [Moles/volume] in Serum or Plasma</span></p><p><b>subject</b>: <a href="Bundle-UC2-Document.html#urn-uuid-76c2c5aa-3d7f-438d-b23d-56ce827695fd">Fabienne Babyglück</a></p><p><b>effective</b>: 2025-03-27</p><p><b>performer</b>: <a href="Bundle-UC2-Document.html#urn-uuid-89029102-999c-4b69-a836-e4dbfbd55527">Tanja Allesgut @ Geburtsklinik</a></p><p><b>value</b>: 3.9 millimole per liter<span style="background: LightGoldenRodYellow"> (Details: UCUM  codemmol/L = 'mmol/L')</span></p><p><b>interpretation</b>: <span title="Codes:{http://terminology.hl7.org/CodeSystem/v3-ObservationInterpretation L}">Low</span></p></div>
        </text>
        <status value="final"/>
        <category>
          <coding>
            <system value="http://terminology.hl7.org/CodeSystem/observation-category"/>
            <code value="laboratory"/>
            <display value="Laboratory"/>
          </coding>
        </category>
        <code>
          <coding>
            <system value="http://loinc.org"/>
            <code value="14771-0"/>
            <display value="Fasting glucose [Moles/volume] in Serum or Plasma"/>
          </coding>
        </code>
        <subject>
          <reference value="urn:uuid:76c2c5aa-3d7f-438d-b23d-56ce827695fd"/>
          <display value="Fabienne Babyglück"/>
        </subject>
        <effectiveDateTime value="2025-03-27"/>
        <performer>
          <reference value="urn:uuid:89029102-999c-4b69-a836-e4dbfbd55527"/>
          <display value="Tanja Allesgut @ Geburtsklinik"/>
        </performer>
        <valueQuantity>
          <value value="3.9"/>
          <unit value="millimole per liter"/>
          <system value="http://unitsofmeasure.org"/>
          <code value="mmol/L"/>
        </valueQuantity>
        <interpretation>
          <coding>
            <system value="http://terminology.hl7.org/CodeSystem/v3-ObservationInterpretation"/>
            <code value="L"/>
            <display value="Low"/>
          </coding>
        </interpretation>
      </Observation>
    </resource>
  </entry>
  <entry>
    <fullUrl value="urn:uuid:1ba6df42-ae1a-4b4a-886f-33d6b2223b1f"/>
    <resource>
      <Encounter>
        <id value="1ba6df42-ae1a-4b4a-886f-33d6b2223b1f"/>
        <language value="de-CH"/>
        <text>
          <status value="generated"/><div xmlns="http://www.w3.org/1999/xhtml" xml:lang="de-CH" lang="de-CH"><a name="Encounter_1ba6df42-ae1a-4b4a-886f-33d6b2223b1f"> </a><p class="res-header-id"><b>Generated Narrative: Encounter 1ba6df42-ae1a-4b4a-886f-33d6b2223b1f</b></p><a name="1ba6df42-ae1a-4b4a-886f-33d6b2223b1f"> </a><a name="hc1ba6df42-ae1a-4b4a-886f-33d6b2223b1f"> </a><a name="1ba6df42-ae1a-4b4a-886f-33d6b2223b1f-en-US"> </a><div style="display: inline-block; background-color: #d9e0e7; padding: 6px; margin: 4px; border: 1px solid #8da1b4; border-radius: 5px; line-height: 60%"><p style="margin-bottom: 0px">Language: de-CH</p></div><p><b>status</b>: Finished</p><p><b>class</b>: <a href="http://terminology.hl7.org/6.2.0/CodeSystem-v3-ActCode.html#v3-ActCode-IMP">ActCode IMP</a>: inpatient encounter</p><p><b>subject</b>: <a href="Bundle-UC2-Document.html#urn-uuid-76c2c5aa-3d7f-438d-b23d-56ce827695fd">Fabienne Babyglück</a></p><h3>Participants</h3><table class="grid"><tr><td style="display: none">-</td><td><b>Individual</b></td></tr><tr><td style="display: none">*</td><td><a href="Bundle-UC2-Document.html#urn-uuid-89029102-999c-4b69-a836-e4dbfbd55527">Tanja Allesgut @ Geburtsklinik</a></td></tr></table><p><b>period</b>: 2025-03-27 --&gt; (ongoing)</p></div>
        </text>
        <status value="finished"/>
        <class>
          <system value="http://terminology.hl7.org/CodeSystem/v3-ActCode"/>
          <code value="IMP"/>
          <display value="inpatient encounter"/>
        </class>
        <subject>
          <reference value="urn:uuid:76c2c5aa-3d7f-438d-b23d-56ce827695fd"/>
          <display value="Fabienne Babyglück"/>
        </subject>
        <participant>
          <individual>
            <reference value="urn:uuid:89029102-999c-4b69-a836-e4dbfbd55527"/>
            <display value="Tanja Allesgut @ Geburtsklinik"/>
          </individual>
        </participant>
        <period>
          <start value="2025-03-27"/>
        </period>
      </Encounter>
    </resource>
  </entry>
  <entry>
    <fullUrl value="urn:uuid:8e89c502-964f-4234-9728-540d881b0380"/>
    <resource>
      <Encounter>
        <id value="8e89c502-964f-4234-9728-540d881b0380"/>
        <language value="de-CH"/>
        <text>
          <status value="extensions"/><div xmlns="http://www.w3.org/1999/xhtml" xml:lang="de-CH" lang="de-CH"><a name="Encounter_8e89c502-964f-4234-9728-540d881b0380"> </a><p class="res-header-id"><b>Generated Narrative: Encounter 8e89c502-964f-4234-9728-540d881b0380</b></p><a name="8e89c502-964f-4234-9728-540d881b0380"> </a><a name="hc8e89c502-964f-4234-9728-540d881b0380"> </a><a name="8e89c502-964f-4234-9728-540d881b0380-en-US"> </a><div style="display: inline-block; background-color: #d9e0e7; padding: 6px; margin: 4px; border: 1px solid #8da1b4; border-radius: 5px; line-height: 60%"><p style="margin-bottom: 0px">Language: de-CH</p></div><p><b>CH EPREG Extension: Planned Next Pregnancy Visit</b>: 2025-04-02</p><p><b>status</b>: Finished</p><p><b>class</b>: <a href="http://terminology.hl7.org/6.2.0/CodeSystem-v3-ActCode.html#v3-ActCode-AMB">ActCode AMB</a>: ambulatory</p><p><b>subject</b>: <a href="Bundle-UC2-Document.html#urn-uuid-76c2c5aa-3d7f-438d-b23d-56ce827695fd">Fabienne Babyglück</a></p><h3>Participants</h3><table class="grid"><tr><td style="display: none">-</td><td><b>Individual</b></td></tr><tr><td style="display: none">*</td><td><a href="Bundle-UC2-Document.html#urn-uuid-89029102-999c-4b69-a836-e4dbfbd55527">Tanja Allesgut @ Geburtsklinik</a></td></tr></table><p><b>period</b>: 2025-03-26 --&gt; 2025-03-26</p></div>
        </text>
        <extension url="http://fhir.ch/ig/ch-epreg/StructureDefinition/ch-epreg-ext-planned-next-preg-visit">
          <valueDateTime value="2025-04-02"/>
        </extension>
        <status value="finished"/>
        <class>
          <system value="http://terminology.hl7.org/CodeSystem/v3-ActCode"/>
          <code value="AMB"/>
          <display value="ambulatory"/>
        </class>
        <subject>
          <reference value="urn:uuid:76c2c5aa-3d7f-438d-b23d-56ce827695fd"/>
          <display value="Fabienne Babyglück"/>
        </subject>
        <participant>
          <individual>
            <reference value="urn:uuid:89029102-999c-4b69-a836-e4dbfbd55527"/>
            <display value="Tanja Allesgut @ Geburtsklinik"/>
          </individual>
        </participant>
        <period>
          <start value="2025-03-26"/>
          <end value="2025-03-26"/>
        </period>
      </Encounter>
    </resource>
  </entry>
  <entry>
    <fullUrl value="urn:uuid:833fd8f2-b75f-4dba-990f-6c46aa468d51"/>
    <resource>
      <Encounter>
        <id value="833fd8f2-b75f-4dba-990f-6c46aa468d51"/>
        <language value="de-CH"/>
        <text>
          <status value="generated"/><div xmlns="http://www.w3.org/1999/xhtml" xml:lang="de-CH" lang="de-CH"><a name="Encounter_833fd8f2-b75f-4dba-990f-6c46aa468d51"> </a><p class="res-header-id"><b>Generated Narrative: Encounter 833fd8f2-b75f-4dba-990f-6c46aa468d51</b></p><a name="833fd8f2-b75f-4dba-990f-6c46aa468d51"> </a><a name="hc833fd8f2-b75f-4dba-990f-6c46aa468d51"> </a><a name="833fd8f2-b75f-4dba-990f-6c46aa468d51-en-US"> </a><div style="display: inline-block; background-color: #d9e0e7; padding: 6px; margin: 4px; border: 1px solid #8da1b4; border-radius: 5px; line-height: 60%"><p style="margin-bottom: 0px">Language: de-CH</p></div><p><b>status</b>: Finished</p><p><b>class</b>: <a href="http://terminology.hl7.org/6.2.0/CodeSystem-v3-ActCode.html#v3-ActCode-IMP">ActCode IMP</a>: inpatient encounter</p><p><b>subject</b>: <a href="Bundle-UC2-Document.html#urn-uuid-111d5e66-f17e-4369-90c6-9382e566040e">Kind</a></p><h3>Participants</h3><table class="grid"><tr><td style="display: none">-</td><td><b>Individual</b></td></tr><tr><td style="display: none">*</td><td><a href="Bundle-UC2-Document.html#urn-uuid-89029102-999c-4b69-a836-e4dbfbd55527">Tanja Allesgut @ Geburtsklinik</a></td></tr></table><p><b>period</b>: 2025-03-27 --&gt; (ongoing)</p><p><b>partOf</b>: <a href="Bundle-UC2-Document.html#urn-uuid-1ba6df42-ae1a-4b4a-886f-33d6b2223b1f">Untersuchung Mutter, 27.03.2025</a></p></div>
        </text>
        <status value="finished"/>
        <class>
          <system value="http://terminology.hl7.org/CodeSystem/v3-ActCode"/>
          <code value="IMP"/>
          <display value="inpatient encounter"/>
        </class>
        <subject>
          <reference value="urn:uuid:111d5e66-f17e-4369-90c6-9382e566040e"/>
          <display value="Kind"/>
        </subject>
        <participant>
          <individual>
            <reference value="urn:uuid:89029102-999c-4b69-a836-e4dbfbd55527"/>
            <display value="Tanja Allesgut @ Geburtsklinik"/>
          </individual>
        </participant>
        <period>
          <start value="2025-03-27"/>
        </period>
        <partOf>
          <reference value="urn:uuid:1ba6df42-ae1a-4b4a-886f-33d6b2223b1f"/>
          <display value="Untersuchung Mutter, 27.03.2025"/>
        </partOf>
      </Encounter>
    </resource>
  </entry>
  <entry>
    <fullUrl value="urn:uuid:22aeb067-85f9-4b3b-9301-161604005206"/>
    <resource>
      <Encounter>
        <id value="22aeb067-85f9-4b3b-9301-161604005206"/>
        <language value="de-CH"/>
        <text>
          <status value="generated"/><div xmlns="http://www.w3.org/1999/xhtml" xml:lang="de-CH" lang="de-CH"><a name="Encounter_22aeb067-85f9-4b3b-9301-161604005206"> </a><p class="res-header-id"><b>Generated Narrative: Encounter 22aeb067-85f9-4b3b-9301-161604005206</b></p><a name="22aeb067-85f9-4b3b-9301-161604005206"> </a><a name="hc22aeb067-85f9-4b3b-9301-161604005206"> </a><a name="22aeb067-85f9-4b3b-9301-161604005206-en-US"> </a><div style="display: inline-block; background-color: #d9e0e7; padding: 6px; margin: 4px; border: 1px solid #8da1b4; border-radius: 5px; line-height: 60%"><p style="margin-bottom: 0px">Language: de-CH</p></div><p><b>status</b>: Finished</p><p><b>class</b>: <a href="http://terminology.hl7.org/6.2.0/CodeSystem-v3-ActCode.html#v3-ActCode-AMB">ActCode AMB</a>: ambulatory</p><p><b>subject</b>: <a href="Bundle-UC2-Document.html#urn-uuid-111d5e66-f17e-4369-90c6-9382e566040e">Kind</a></p><h3>Participants</h3><table class="grid"><tr><td style="display: none">-</td><td><b>Individual</b></td></tr><tr><td style="display: none">*</td><td><a href="Bundle-UC2-Document.html#urn-uuid-89029102-999c-4b69-a836-e4dbfbd55527">Tanja Allesgut @ Geburtsklinik</a></td></tr></table><p><b>period</b>: 2025-03-26 --&gt; 2025-03-26</p><p><b>partOf</b>: <a href="Bundle-UC2-Document.html#urn-uuid-8e89c502-964f-4234-9728-540d881b0380">Untersuchung Mutter, 26.03.2025</a></p></div>
        </text>
        <status value="finished"/>
        <class>
          <system value="http://terminology.hl7.org/CodeSystem/v3-ActCode"/>
          <code value="AMB"/>
          <display value="ambulatory"/>
        </class>
        <subject>
          <reference value="urn:uuid:111d5e66-f17e-4369-90c6-9382e566040e"/>
          <display value="Kind"/>
        </subject>
        <participant>
          <individual>
            <reference value="urn:uuid:89029102-999c-4b69-a836-e4dbfbd55527"/>
            <display value="Tanja Allesgut @ Geburtsklinik"/>
          </individual>
        </participant>
        <period>
          <start value="2025-03-26"/>
          <end value="2025-03-26"/>
        </period>
        <partOf>
          <reference value="urn:uuid:8e89c502-964f-4234-9728-540d881b0380"/>
          <display value="Untersuchung Mutter, 26.03.2025"/>
        </partOf>
      </Encounter>
    </resource>
  </entry>
  <entry>
    <fullUrl value="urn:uuid:84869994-4348-4ad3-95ee-d9b0faf75dba"/>
    <resource>
      <Observation>
        <id value="84869994-4348-4ad3-95ee-d9b0faf75dba"/>
        <language value="de-CH"/>
        <text>
          <status value="generated"/><div xmlns="http://www.w3.org/1999/xhtml" xml:lang="de-CH" lang="de-CH"><a name="Observation_84869994-4348-4ad3-95ee-d9b0faf75dba"> </a><p class="res-header-id"><b>Generated Narrative: Observation 84869994-4348-4ad3-95ee-d9b0faf75dba</b></p><a name="84869994-4348-4ad3-95ee-d9b0faf75dba"> </a><a name="hc84869994-4348-4ad3-95ee-d9b0faf75dba"> </a><a name="84869994-4348-4ad3-95ee-d9b0faf75dba-en-US"> </a><div style="display: inline-block; background-color: #d9e0e7; padding: 6px; margin: 4px; border: 1px solid #8da1b4; border-radius: 5px; line-height: 60%"><p style="margin-bottom: 0px">Language: de-CH</p></div><p><b>status</b>: Final</p><p><b>code</b>: <span title="Codes:{http://loinc.org 49052-4}">Gestational age in days</span></p><p><b>subject</b>: <a href="Bundle-UC2-Document.html#urn-uuid-76c2c5aa-3d7f-438d-b23d-56ce827695fd">Fabienne Babyglück</a></p><p><b>encounter</b>: <a href="Bundle-UC2-Document.html#urn-uuid-1ba6df42-ae1a-4b4a-886f-33d6b2223b1f">Untersuchung Mutter, 27.03.2025</a></p><p><b>effective</b>: 2025-03-27</p><p><b>performer</b>: <a href="Bundle-UC2-Document.html#urn-uuid-89029102-999c-4b69-a836-e4dbfbd55527">Tanja Allesgut @ Geburtsklinik</a></p><p><b>value</b>: 32 day<span style="background: LightGoldenRodYellow"> (Details: UCUM  coded = 'd')</span></p></div>
        </text>
        <status value="final"/>
        <code>
          <coding>
            <system value="http://loinc.org"/>
            <code value="49052-4"/>
            <display value="Gestational age in days"/>
          </coding>
        </code>
        <subject>
          <reference value="urn:uuid:76c2c5aa-3d7f-438d-b23d-56ce827695fd"/>
          <display value="Fabienne Babyglück"/>
        </subject>
        <encounter>
          <reference value="urn:uuid:1ba6df42-ae1a-4b4a-886f-33d6b2223b1f"/>
          <display value="Untersuchung Mutter, 27.03.2025"/>
        </encounter>
        <effectiveDateTime value="2025-03-27"/>
        <performer>
          <reference value="urn:uuid:89029102-999c-4b69-a836-e4dbfbd55527"/>
          <display value="Tanja Allesgut @ Geburtsklinik"/>
        </performer>
        <valueQuantity>
          <value value="32"/>
          <unit value="day"/>
          <system value="http://unitsofmeasure.org"/>
          <code value="d"/>
        </valueQuantity>
      </Observation>
    </resource>
  </entry>
  <entry>
    <fullUrl value="urn:uuid:2f167f2f-44f7-49e3-a970-d7f7a6573cd3"/>
    <resource>
      <Observation>
        <id value="2f167f2f-44f7-49e3-a970-d7f7a6573cd3"/>
        <language value="de-CH"/>
        <text>
          <status value="generated"/><div xmlns="http://www.w3.org/1999/xhtml" xml:lang="de-CH" lang="de-CH"><a name="Observation_2f167f2f-44f7-49e3-a970-d7f7a6573cd3"> </a><p class="res-header-id"><b>Generated Narrative: Observation 2f167f2f-44f7-49e3-a970-d7f7a6573cd3</b></p><a name="2f167f2f-44f7-49e3-a970-d7f7a6573cd3"> </a><a name="hc2f167f2f-44f7-49e3-a970-d7f7a6573cd3"> </a><a name="2f167f2f-44f7-49e3-a970-d7f7a6573cd3-en-US"> </a><div style="display: inline-block; background-color: #d9e0e7; padding: 6px; margin: 4px; border: 1px solid #8da1b4; border-radius: 5px; line-height: 60%"><p style="margin-bottom: 0px">Language: de-CH</p></div><p><b>status</b>: Final</p><p><b>code</b>: <span title="Codes:{http://loinc.org 49052-4}">Gestational age in days</span></p><p><b>subject</b>: <a href="Bundle-UC2-Document.html#urn-uuid-76c2c5aa-3d7f-438d-b23d-56ce827695fd">Fabienne Babyglück</a></p><p><b>encounter</b>: <a href="Bundle-UC2-Document.html#urn-uuid-8e89c502-964f-4234-9728-540d881b0380">Untersuchung Mutter, 26.03.2025</a></p><p><b>effective</b>: 2025-03-26</p><p><b>performer</b>: <a href="Bundle-UC2-Document.html#urn-uuid-89029102-999c-4b69-a836-e4dbfbd55527">Tanja Allesgut @ Geburtsklinik</a></p><p><b>value</b>: 32 day<span style="background: LightGoldenRodYellow"> (Details: UCUM  coded = 'd')</span></p></div>
        </text>
        <status value="final"/>
        <code>
          <coding>
            <system value="http://loinc.org"/>
            <code value="49052-4"/>
            <display value="Gestational age in days"/>
          </coding>
        </code>
        <subject>
          <reference value="urn:uuid:76c2c5aa-3d7f-438d-b23d-56ce827695fd"/>
          <display value="Fabienne Babyglück"/>
        </subject>
        <encounter>
          <reference value="urn:uuid:8e89c502-964f-4234-9728-540d881b0380"/>
          <display value="Untersuchung Mutter, 26.03.2025"/>
        </encounter>
        <effectiveDateTime value="2025-03-26"/>
        <performer>
          <reference value="urn:uuid:89029102-999c-4b69-a836-e4dbfbd55527"/>
          <display value="Tanja Allesgut @ Geburtsklinik"/>
        </performer>
        <valueQuantity>
          <value value="32"/>
          <unit value="day"/>
          <system value="http://unitsofmeasure.org"/>
          <code value="d"/>
        </valueQuantity>
      </Observation>
    </resource>
  </entry>
  <entry>
    <fullUrl value="urn:uuid:e1c73669-f935-47d1-9dcd-fab76a38bdb7"/>
    <resource>
      <Observation>
        <id value="e1c73669-f935-47d1-9dcd-fab76a38bdb7"/>
        <language value="de-CH"/>
        <text>
          <status value="generated"/><div xmlns="http://www.w3.org/1999/xhtml" xml:lang="de-CH" lang="de-CH"><a name="Observation_e1c73669-f935-47d1-9dcd-fab76a38bdb7"> </a><p class="res-header-id"><b>Generated Narrative: Observation e1c73669-f935-47d1-9dcd-fab76a38bdb7</b></p><a name="e1c73669-f935-47d1-9dcd-fab76a38bdb7"> </a><a name="hce1c73669-f935-47d1-9dcd-fab76a38bdb7"> </a><a name="e1c73669-f935-47d1-9dcd-fab76a38bdb7-en-US"> </a><div style="display: inline-block; background-color: #d9e0e7; padding: 6px; margin: 4px; border: 1px solid #8da1b4; border-radius: 5px; line-height: 60%"><p style="margin-bottom: 0px">Language: de-CH</p></div><p><b>status</b>: Final</p><p><b>category</b>: <span title="Codes:{http://terminology.hl7.org/CodeSystem/observation-category vital-signs}">Vital Signs</span></p><p><b>code</b>: <span title="Codes:{http://loinc.org 29463-7}">Body weight</span></p><p><b>subject</b>: <a href="Bundle-UC2-Document.html#urn-uuid-76c2c5aa-3d7f-438d-b23d-56ce827695fd">Fabienne Babyglück</a></p><p><b>encounter</b>: <a href="Bundle-UC2-Document.html#urn-uuid-1ba6df42-ae1a-4b4a-886f-33d6b2223b1f">Untersuchung Mutter, 27.03.2025</a></p><p><b>effective</b>: 2025-03-27</p><p><b>performer</b>: <a href="Bundle-UC2-Document.html#urn-uuid-89029102-999c-4b69-a836-e4dbfbd55527">Tanja Allesgut @ Geburtsklinik</a></p><p><b>value</b>: 65 kilogram<span style="background: LightGoldenRodYellow"> (Details: UCUM  codekg = 'kg')</span></p></div>
        </text>
        <status value="final"/>
        <category>
          <coding>
            <system value="http://terminology.hl7.org/CodeSystem/observation-category"/>
            <code value="vital-signs"/>
            <display value="Vital Signs"/>
          </coding>
        </category>
        <code>
          <coding>
            <system value="http://loinc.org"/>
            <code value="29463-7"/>
            <display value="Body weight"/>
          </coding>
        </code>
        <subject>
          <reference value="urn:uuid:76c2c5aa-3d7f-438d-b23d-56ce827695fd"/>
          <display value="Fabienne Babyglück"/>
        </subject>
        <encounter>
          <reference value="urn:uuid:1ba6df42-ae1a-4b4a-886f-33d6b2223b1f"/>
          <display value="Untersuchung Mutter, 27.03.2025"/>
        </encounter>
        <effectiveDateTime value="2025-03-27"/>
        <performer>
          <reference value="urn:uuid:89029102-999c-4b69-a836-e4dbfbd55527"/>
          <display value="Tanja Allesgut @ Geburtsklinik"/>
        </performer>
        <valueQuantity>
          <value value="65"/>
          <unit value="kilogram"/>
          <system value="http://unitsofmeasure.org"/>
          <code value="kg"/>
        </valueQuantity>
      </Observation>
    </resource>
  </entry>
  <entry>
    <fullUrl value="urn:uuid:f339e056-53d6-4247-9226-5339123fbd14"/>
    <resource>
      <Observation>
        <id value="f339e056-53d6-4247-9226-5339123fbd14"/>
        <language value="de-CH"/>
        <text>
          <status value="generated"/><div xmlns="http://www.w3.org/1999/xhtml" xml:lang="de-CH" lang="de-CH"><a name="Observation_f339e056-53d6-4247-9226-5339123fbd14"> </a><p class="res-header-id"><b>Generated Narrative: Observation f339e056-53d6-4247-9226-5339123fbd14</b></p><a name="f339e056-53d6-4247-9226-5339123fbd14"> </a><a name="hcf339e056-53d6-4247-9226-5339123fbd14"> </a><a name="f339e056-53d6-4247-9226-5339123fbd14-en-US"> </a><div style="display: inline-block; background-color: #d9e0e7; padding: 6px; margin: 4px; border: 1px solid #8da1b4; border-radius: 5px; line-height: 60%"><p style="margin-bottom: 0px">Language: de-CH</p></div><p><b>status</b>: Final</p><p><b>category</b>: <span title="Codes:{http://terminology.hl7.org/CodeSystem/observation-category vital-signs}">Vital Signs</span></p><p><b>code</b>: <span title="Codes:{http://loinc.org 29463-7}">Body weight</span></p><p><b>subject</b>: <a href="Bundle-UC2-Document.html#urn-uuid-76c2c5aa-3d7f-438d-b23d-56ce827695fd">Fabienne Babyglück</a></p><p><b>encounter</b>: <a href="Bundle-UC2-Document.html#urn-uuid-8e89c502-964f-4234-9728-540d881b0380">Untersuchung Mutter, 26.03.2025</a></p><p><b>effective</b>: 2025-03-26</p><p><b>performer</b>: <a href="Bundle-UC2-Document.html#urn-uuid-89029102-999c-4b69-a836-e4dbfbd55527">Tanja Allesgut @ Geburtsklinik</a></p><p><b>value</b>: 65.1 kilogram<span style="background: LightGoldenRodYellow"> (Details: UCUM  codekg = 'kg')</span></p></div>
        </text>
        <status value="final"/>
        <category>
          <coding>
            <system value="http://terminology.hl7.org/CodeSystem/observation-category"/>
            <code value="vital-signs"/>
            <display value="Vital Signs"/>
          </coding>
        </category>
        <code>
          <coding>
            <system value="http://loinc.org"/>
            <code value="29463-7"/>
            <display value="Body weight"/>
          </coding>
        </code>
        <subject>
          <reference value="urn:uuid:76c2c5aa-3d7f-438d-b23d-56ce827695fd"/>
          <display value="Fabienne Babyglück"/>
        </subject>
        <encounter>
          <reference value="urn:uuid:8e89c502-964f-4234-9728-540d881b0380"/>
          <display value="Untersuchung Mutter, 26.03.2025"/>
        </encounter>
        <effectiveDateTime value="2025-03-26"/>
        <performer>
          <reference value="urn:uuid:89029102-999c-4b69-a836-e4dbfbd55527"/>
          <display value="Tanja Allesgut @ Geburtsklinik"/>
        </performer>
        <valueQuantity>
          <value value="65.1"/>
          <unit value="kilogram"/>
          <system value="http://unitsofmeasure.org"/>
          <code value="kg"/>
        </valueQuantity>
      </Observation>
    </resource>
  </entry>
  <entry>
    <fullUrl value="urn:uuid:4268bd90-eff8-41f4-a7b4-2178dac0e470"/>
    <resource>
      <Observation>
        <id value="4268bd90-eff8-41f4-a7b4-2178dac0e470"/>
        <language value="de-CH"/>
        <text>
          <status value="generated"/><div xmlns="http://www.w3.org/1999/xhtml" xml:lang="de-CH" lang="de-CH"><a name="Observation_4268bd90-eff8-41f4-a7b4-2178dac0e470"> </a><p class="res-header-id"><b>Generated Narrative: Observation 4268bd90-eff8-41f4-a7b4-2178dac0e470</b></p><a name="4268bd90-eff8-41f4-a7b4-2178dac0e470"> </a><a name="hc4268bd90-eff8-41f4-a7b4-2178dac0e470"> </a><a name="4268bd90-eff8-41f4-a7b4-2178dac0e470-en-US"> </a><div style="display: inline-block; background-color: #d9e0e7; padding: 6px; margin: 4px; border: 1px solid #8da1b4; border-radius: 5px; line-height: 60%"><p style="margin-bottom: 0px">Language: de-CH</p></div><p><b>status</b>: Final</p><p><b>category</b>: <span title="Codes:{http://terminology.hl7.org/CodeSystem/observation-category vital-signs}">Vital Signs</span></p><p><b>code</b>: <span title="Codes:{http://loinc.org 85354-9}">Blood pressure panel with all children optional</span></p><p><b>subject</b>: <a href="Bundle-UC2-Document.html#urn-uuid-76c2c5aa-3d7f-438d-b23d-56ce827695fd">Fabienne Babyglück</a></p><p><b>encounter</b>: <a href="Bundle-UC2-Document.html#urn-uuid-1ba6df42-ae1a-4b4a-886f-33d6b2223b1f">Untersuchung Mutter, 27.03.2025</a></p><p><b>effective</b>: 2025-03-27</p><p><b>performer</b>: <a href="Bundle-UC2-Document.html#urn-uuid-89029102-999c-4b69-a836-e4dbfbd55527">Tanja Allesgut @ Geburtsklinik</a></p><blockquote><p><b>component</b></p><p><b>code</b>: <span title="Codes:{http://loinc.org 8480-6}">Systolic blood pressure</span></p><p><b>value</b>: 160 millimeter of mercury<span style="background: LightGoldenRodYellow"> (Details: UCUM  codemm[Hg] = 'mm[Hg]')</span></p></blockquote><blockquote><p><b>component</b></p><p><b>code</b>: <span title="Codes:{http://loinc.org 8462-4}">Diastolic blood pressure</span></p><p><b>value</b>: 60 millimeter of mercury<span style="background: LightGoldenRodYellow"> (Details: UCUM  codemm[Hg] = 'mm[Hg]')</span></p></blockquote></div>
        </text>
        <status value="final"/>
        <category>
          <coding>
            <system value="http://terminology.hl7.org/CodeSystem/observation-category"/>
            <code value="vital-signs"/>
            <display value="Vital Signs"/>
          </coding>
        </category>
        <code>
          <coding>
            <system value="http://loinc.org"/>
            <code value="85354-9"/>
            <display value="Blood pressure panel with all children optional"/>
          </coding>
        </code>
        <subject>
          <reference value="urn:uuid:76c2c5aa-3d7f-438d-b23d-56ce827695fd"/>
          <display value="Fabienne Babyglück"/>
        </subject>
        <encounter>
          <reference value="urn:uuid:1ba6df42-ae1a-4b4a-886f-33d6b2223b1f"/>
          <display value="Untersuchung Mutter, 27.03.2025"/>
        </encounter>
        <effectiveDateTime value="2025-03-27"/>
        <performer>
          <reference value="urn:uuid:89029102-999c-4b69-a836-e4dbfbd55527"/>
          <display value="Tanja Allesgut @ Geburtsklinik"/>
        </performer>
        <component>
          <code>
            <coding>
              <system value="http://loinc.org"/>
              <code value="8480-6"/>
              <display value="Systolic blood pressure"/>
            </coding>
          </code>
          <valueQuantity>
            <value value="160"/>
            <unit value="millimeter of mercury"/>
            <system value="http://unitsofmeasure.org"/>
            <code value="mm[Hg]"/>
          </valueQuantity>
        </component>
        <component>
          <code>
            <coding>
              <system value="http://loinc.org"/>
              <code value="8462-4"/>
              <display value="Diastolic blood pressure"/>
            </coding>
          </code>
          <valueQuantity>
            <value value="60"/>
            <unit value="millimeter of mercury"/>
            <system value="http://unitsofmeasure.org"/>
            <code value="mm[Hg]"/>
          </valueQuantity>
        </component>
      </Observation>
    </resource>
  </entry>
  <entry>
    <fullUrl value="urn:uuid:e949f912-fc27-4849-8632-09caad9fe897"/>
    <resource>
      <Observation>
        <id value="e949f912-fc27-4849-8632-09caad9fe897"/>
        <language value="de-CH"/>
        <text>
          <status value="generated"/><div xmlns="http://www.w3.org/1999/xhtml" xml:lang="de-CH" lang="de-CH"><a name="Observation_e949f912-fc27-4849-8632-09caad9fe897"> </a><p class="res-header-id"><b>Generated Narrative: Observation e949f912-fc27-4849-8632-09caad9fe897</b></p><a name="e949f912-fc27-4849-8632-09caad9fe897"> </a><a name="hce949f912-fc27-4849-8632-09caad9fe897"> </a><a name="e949f912-fc27-4849-8632-09caad9fe897-en-US"> </a><div style="display: inline-block; background-color: #d9e0e7; padding: 6px; margin: 4px; border: 1px solid #8da1b4; border-radius: 5px; line-height: 60%"><p style="margin-bottom: 0px">Language: de-CH</p></div><p><b>status</b>: Final</p><p><b>category</b>: <span title="Codes:{http://terminology.hl7.org/CodeSystem/observation-category vital-signs}">Vital Signs</span></p><p><b>code</b>: <span title="Codes:{http://loinc.org 85354-9}">Blood pressure panel with all children optional</span></p><p><b>subject</b>: <a href="Bundle-UC2-Document.html#urn-uuid-76c2c5aa-3d7f-438d-b23d-56ce827695fd">Fabienne Babyglück</a></p><p><b>encounter</b>: <a href="Bundle-UC2-Document.html#urn-uuid-8e89c502-964f-4234-9728-540d881b0380">Untersuchung Mutter, 26.03.2025</a></p><p><b>effective</b>: 2025-03-26</p><p><b>performer</b>: <a href="Bundle-UC2-Document.html#urn-uuid-89029102-999c-4b69-a836-e4dbfbd55527">Tanja Allesgut @ Geburtsklinik</a></p><blockquote><p><b>component</b></p><p><b>code</b>: <span title="Codes:{http://loinc.org 8480-6}">Systolic blood pressure</span></p><p><b>value</b>: 122 millimeter of mercury<span style="background: LightGoldenRodYellow"> (Details: UCUM  codemm[Hg] = 'mm[Hg]')</span></p></blockquote><blockquote><p><b>component</b></p><p><b>code</b>: <span title="Codes:{http://loinc.org 8462-4}">Diastolic blood pressure</span></p><p><b>value</b>: 83 millimeter of mercury<span style="background: LightGoldenRodYellow"> (Details: UCUM  codemm[Hg] = 'mm[Hg]')</span></p></blockquote></div>
        </text>
        <status value="final"/>
        <category>
          <coding>
            <system value="http://terminology.hl7.org/CodeSystem/observation-category"/>
            <code value="vital-signs"/>
            <display value="Vital Signs"/>
          </coding>
        </category>
        <code>
          <coding>
            <system value="http://loinc.org"/>
            <code value="85354-9"/>
            <display value="Blood pressure panel with all children optional"/>
          </coding>
        </code>
        <subject>
          <reference value="urn:uuid:76c2c5aa-3d7f-438d-b23d-56ce827695fd"/>
          <display value="Fabienne Babyglück"/>
        </subject>
        <encounter>
          <reference value="urn:uuid:8e89c502-964f-4234-9728-540d881b0380"/>
          <display value="Untersuchung Mutter, 26.03.2025"/>
        </encounter>
        <effectiveDateTime value="2025-03-26"/>
        <performer>
          <reference value="urn:uuid:89029102-999c-4b69-a836-e4dbfbd55527"/>
          <display value="Tanja Allesgut @ Geburtsklinik"/>
        </performer>
        <component>
          <code>
            <coding>
              <system value="http://loinc.org"/>
              <code value="8480-6"/>
              <display value="Systolic blood pressure"/>
            </coding>
          </code>
          <valueQuantity>
            <value value="122"/>
            <unit value="millimeter of mercury"/>
            <system value="http://unitsofmeasure.org"/>
            <code value="mm[Hg]"/>
          </valueQuantity>
        </component>
        <component>
          <code>
            <coding>
              <system value="http://loinc.org"/>
              <code value="8462-4"/>
              <display value="Diastolic blood pressure"/>
            </coding>
          </code>
          <valueQuantity>
            <value value="83"/>
            <unit value="millimeter of mercury"/>
            <system value="http://unitsofmeasure.org"/>
            <code value="mm[Hg]"/>
          </valueQuantity>
        </component>
      </Observation>
    </resource>
  </entry>
  <entry>
    <fullUrl value="urn:uuid:2db81543-7bf1-4965-a75e-00400c62e78b"/>
    <resource>
      <Observation>
        <id value="2db81543-7bf1-4965-a75e-00400c62e78b"/>
        <language value="de-CH"/>
        <text>
          <status value="generated"/><div xmlns="http://www.w3.org/1999/xhtml" xml:lang="de-CH" lang="de-CH"><a name="Observation_2db81543-7bf1-4965-a75e-00400c62e78b"> </a><p class="res-header-id"><b>Generated Narrative: Observation 2db81543-7bf1-4965-a75e-00400c62e78b</b></p><a name="2db81543-7bf1-4965-a75e-00400c62e78b"> </a><a name="hc2db81543-7bf1-4965-a75e-00400c62e78b"> </a><a name="2db81543-7bf1-4965-a75e-00400c62e78b-en-US"> </a><div style="display: inline-block; background-color: #d9e0e7; padding: 6px; margin: 4px; border: 1px solid #8da1b4; border-radius: 5px; line-height: 60%"><p style="margin-bottom: 0px">Language: de-CH</p></div><p><b>status</b>: Final</p><p><b>code</b>: <span title="Codes:{http://snomed.info/sct 417597005}">Urine dipstick test finding (finding)</span></p><p><b>subject</b>: <a href="Bundle-UC2-Document.html#urn-uuid-76c2c5aa-3d7f-438d-b23d-56ce827695fd">Fabienne Babyglück</a></p><p><b>encounter</b>: <a href="Bundle-UC2-Document.html#urn-uuid-1ba6df42-ae1a-4b4a-886f-33d6b2223b1f">Untersuchung Mutter, 27.03.2025</a></p><p><b>effective</b>: 2025-03-27</p><p><b>performer</b>: <a href="Bundle-UC2-Document.html#urn-uuid-89029102-999c-4b69-a836-e4dbfbd55527">Tanja Allesgut @ Geburtsklinik</a></p><p><b>value</b>: bland</p></div>
        </text>
        <status value="final"/>
        <code>
          <coding>
            <system value="http://snomed.info/sct"/>
            <code value="417597005"/>
            <display value="Urine dipstick test finding (finding)"/>
          </coding>
        </code>
        <subject>
          <reference value="urn:uuid:76c2c5aa-3d7f-438d-b23d-56ce827695fd"/>
          <display value="Fabienne Babyglück"/>
        </subject>
        <encounter>
          <reference value="urn:uuid:1ba6df42-ae1a-4b4a-886f-33d6b2223b1f"/>
          <display value="Untersuchung Mutter, 27.03.2025"/>
        </encounter>
        <effectiveDateTime value="2025-03-27"/>
        <performer>
          <reference value="urn:uuid:89029102-999c-4b69-a836-e4dbfbd55527"/>
          <display value="Tanja Allesgut @ Geburtsklinik"/>
        </performer>
        <valueString value="bland"/>
      </Observation>
    </resource>
  </entry>
  <entry>
    <fullUrl value="urn:uuid:6eafd07b-c40a-4864-874c-cfe2d5b222ed"/>
    <resource>
      <Observation>
        <id value="6eafd07b-c40a-4864-874c-cfe2d5b222ed"/>
        <language value="de-CH"/>
        <text>
          <status value="generated"/><div xmlns="http://www.w3.org/1999/xhtml" xml:lang="de-CH" lang="de-CH"><a name="Observation_6eafd07b-c40a-4864-874c-cfe2d5b222ed"> </a><p class="res-header-id"><b>Generated Narrative: Observation 6eafd07b-c40a-4864-874c-cfe2d5b222ed</b></p><a name="6eafd07b-c40a-4864-874c-cfe2d5b222ed"> </a><a name="hc6eafd07b-c40a-4864-874c-cfe2d5b222ed"> </a><a name="6eafd07b-c40a-4864-874c-cfe2d5b222ed-en-US"> </a><div style="display: inline-block; background-color: #d9e0e7; padding: 6px; margin: 4px; border: 1px solid #8da1b4; border-radius: 5px; line-height: 60%"><p style="margin-bottom: 0px">Language: de-CH</p></div><p><b>status</b>: Final</p><p><b>code</b>: <span title="Codes:{http://snomed.info/sct 364265003}">Height of gravid uterus (observable entity)</span></p><p><b>subject</b>: <a href="Bundle-UC2-Document.html#urn-uuid-76c2c5aa-3d7f-438d-b23d-56ce827695fd">Fabienne Babyglück</a></p><p><b>encounter</b>: <a href="Bundle-UC2-Document.html#urn-uuid-1ba6df42-ae1a-4b4a-886f-33d6b2223b1f">Untersuchung Mutter, 27.03.2025</a></p><p><b>effective</b>: 2025-03-27</p><p><b>performer</b>: <a href="Bundle-UC2-Document.html#urn-uuid-89029102-999c-4b69-a836-e4dbfbd55527">Tanja Allesgut @ Geburtsklinik</a></p><p><b>value</b>: Rb/2</p></div>
        </text>
        <status value="final"/>
        <code>
          <coding>
            <system value="http://snomed.info/sct"/>
            <code value="364265003"/>
            <display value="Height of gravid uterus (observable entity)"/>
          </coding>
        </code>
        <subject>
          <reference value="urn:uuid:76c2c5aa-3d7f-438d-b23d-56ce827695fd"/>
          <display value="Fabienne Babyglück"/>
        </subject>
        <encounter>
          <reference value="urn:uuid:1ba6df42-ae1a-4b4a-886f-33d6b2223b1f"/>
          <display value="Untersuchung Mutter, 27.03.2025"/>
        </encounter>
        <effectiveDateTime value="2025-03-27"/>
        <performer>
          <reference value="urn:uuid:89029102-999c-4b69-a836-e4dbfbd55527"/>
          <display value="Tanja Allesgut @ Geburtsklinik"/>
        </performer>
        <valueString value="Rb/2"/>
      </Observation>
    </resource>
  </entry>
  <entry>
    <fullUrl value="urn:uuid:c9bba019-9ed9-4574-84e2-f7d302e8f5d0"/>
    <resource>
      <Observation>
        <id value="c9bba019-9ed9-4574-84e2-f7d302e8f5d0"/>
        <language value="de-CH"/>
        <text>
          <status value="generated"/><div xmlns="http://www.w3.org/1999/xhtml" xml:lang="de-CH" lang="de-CH"><a name="Observation_c9bba019-9ed9-4574-84e2-f7d302e8f5d0"> </a><p class="res-header-id"><b>Generated Narrative: Observation c9bba019-9ed9-4574-84e2-f7d302e8f5d0</b></p><a name="c9bba019-9ed9-4574-84e2-f7d302e8f5d0"> </a><a name="hcc9bba019-9ed9-4574-84e2-f7d302e8f5d0"> </a><a name="c9bba019-9ed9-4574-84e2-f7d302e8f5d0-en-US"> </a><div style="display: inline-block; background-color: #d9e0e7; padding: 6px; margin: 4px; border: 1px solid #8da1b4; border-radius: 5px; line-height: 60%"><p style="margin-bottom: 0px">Language: de-CH</p></div><p><b>status</b>: Final</p><p><b>code</b>: <span title="Codes:{http://snomed.info/sct 364230003}">Vagina feature (observable entity)</span></p><p><b>subject</b>: <a href="Bundle-UC2-Document.html#urn-uuid-76c2c5aa-3d7f-438d-b23d-56ce827695fd">Fabienne Babyglück</a></p><p><b>encounter</b>: <a href="Bundle-UC2-Document.html#urn-uuid-1ba6df42-ae1a-4b4a-886f-33d6b2223b1f">Untersuchung Mutter, 27.03.2025</a></p><p><b>effective</b>: 2025-03-27</p><p><b>performer</b>: <a href="Bundle-UC2-Document.html#urn-uuid-89029102-999c-4b69-a836-e4dbfbd55527">Tanja Allesgut @ Geburtsklinik</a></p><p><b>value</b>: MM 5 cm</p></div>
        </text>
        <status value="final"/>
        <code>
          <coding>
            <system value="http://snomed.info/sct"/>
            <code value="364230003"/>
            <display value="Vagina feature (observable entity)"/>
          </coding>
        </code>
        <subject>
          <reference value="urn:uuid:76c2c5aa-3d7f-438d-b23d-56ce827695fd"/>
          <display value="Fabienne Babyglück"/>
        </subject>
        <encounter>
          <reference value="urn:uuid:1ba6df42-ae1a-4b4a-886f-33d6b2223b1f"/>
          <display value="Untersuchung Mutter, 27.03.2025"/>
        </encounter>
        <effectiveDateTime value="2025-03-27"/>
        <performer>
          <reference value="urn:uuid:89029102-999c-4b69-a836-e4dbfbd55527"/>
          <display value="Tanja Allesgut @ Geburtsklinik"/>
        </performer>
        <valueString value="MM 5 cm"/>
      </Observation>
    </resource>
  </entry>
  <entry>
    <fullUrl value="urn:uuid:3e120206-7aa2-4ced-82c3-3704868e023f"/>
    <resource>
      <Observation>
        <id value="3e120206-7aa2-4ced-82c3-3704868e023f"/>
        <language value="de-CH"/>
        <text>
          <status value="generated"/><div xmlns="http://www.w3.org/1999/xhtml" xml:lang="de-CH" lang="de-CH"><a name="Observation_3e120206-7aa2-4ced-82c3-3704868e023f"> </a><p class="res-header-id"><b>Generated Narrative: Observation 3e120206-7aa2-4ced-82c3-3704868e023f</b></p><a name="3e120206-7aa2-4ced-82c3-3704868e023f"> </a><a name="hc3e120206-7aa2-4ced-82c3-3704868e023f"> </a><a name="3e120206-7aa2-4ced-82c3-3704868e023f-en-US"> </a><div style="display: inline-block; background-color: #d9e0e7; padding: 6px; margin: 4px; border: 1px solid #8da1b4; border-radius: 5px; line-height: 60%"><p style="margin-bottom: 0px">Language: de-CH</p></div><p><b>status</b>: Final</p><p><b>code</b>: <span title="Codes:{http://snomed.info/sct 249040004}">Fetal movement activity (observable entity)</span></p><p><b>subject</b>: <a href="Bundle-UC2-Document.html#urn-uuid-111d5e66-f17e-4369-90c6-9382e566040e">Kind</a></p><p><b>encounter</b>: <a href="Bundle-UC2-Document.html#urn-uuid-833fd8f2-b75f-4dba-990f-6c46aa468d51">Untersuchung Kind, 27.03.2025</a></p><p><b>effective</b>: 2025-03-27</p><p><b>performer</b>: <a href="Bundle-UC2-Document.html#urn-uuid-89029102-999c-4b69-a836-e4dbfbd55527">Tanja Allesgut @ Geburtsklinik</a></p><p><b>value</b>: schwach</p></div>
        </text>
        <status value="final"/>
        <code>
          <coding>
            <system value="http://snomed.info/sct"/>
            <code value="249040004"/>
            <display value="Fetal movement activity (observable entity)"/>
          </coding>
        </code>
        <subject>
          <reference value="urn:uuid:111d5e66-f17e-4369-90c6-9382e566040e"/>
          <display value="Kind"/>
        </subject>
        <encounter>
          <reference value="urn:uuid:833fd8f2-b75f-4dba-990f-6c46aa468d51"/>
          <display value="Untersuchung Kind, 27.03.2025"/>
        </encounter>
        <effectiveDateTime value="2025-03-27"/>
        <performer>
          <reference value="urn:uuid:89029102-999c-4b69-a836-e4dbfbd55527"/>
          <display value="Tanja Allesgut @ Geburtsklinik"/>
        </performer>
        <valueString value="schwach"/>
      </Observation>
    </resource>
  </entry>
  <entry>
    <fullUrl value="urn:uuid:d0b53779-fde0-4780-9ff4-9ba2a4cf9393"/>
    <resource>
      <Observation>
        <id value="d0b53779-fde0-4780-9ff4-9ba2a4cf9393"/>
        <language value="de-CH"/>
        <text>
          <status value="generated"/><div xmlns="http://www.w3.org/1999/xhtml" xml:lang="de-CH" lang="de-CH"><a name="Observation_d0b53779-fde0-4780-9ff4-9ba2a4cf9393"> </a><p class="res-header-id"><b>Generated Narrative: Observation d0b53779-fde0-4780-9ff4-9ba2a4cf9393</b></p><a name="d0b53779-fde0-4780-9ff4-9ba2a4cf9393"> </a><a name="hcd0b53779-fde0-4780-9ff4-9ba2a4cf9393"> </a><a name="d0b53779-fde0-4780-9ff4-9ba2a4cf9393-en-US"> </a><div style="display: inline-block; background-color: #d9e0e7; padding: 6px; margin: 4px; border: 1px solid #8da1b4; border-radius: 5px; line-height: 60%"><p style="margin-bottom: 0px">Language: de-CH</p></div><p><b>status</b>: Final</p><p><b>code</b>: <span title="Codes:{http://snomed.info/sct 364620002}">Fetal heart feature (observable entity)</span></p><p><b>subject</b>: <a href="Bundle-UC2-Document.html#urn-uuid-111d5e66-f17e-4369-90c6-9382e566040e">Kind</a></p><p><b>encounter</b>: <a href="Bundle-UC2-Document.html#urn-uuid-833fd8f2-b75f-4dba-990f-6c46aa468d51">Untersuchung Kind, 27.03.2025</a></p><p><b>effective</b>: 2025-03-27</p><p><b>performer</b>: <a href="Bundle-UC2-Document.html#urn-uuid-89029102-999c-4b69-a836-e4dbfbd55527">Tanja Allesgut @ Geburtsklinik</a></p><p><b>value</b>: 110 /min</p></div>
        </text>
        <status value="final"/>
        <code>
          <coding>
            <system value="http://snomed.info/sct"/>
            <code value="364620002"/>
            <display value="Fetal heart feature (observable entity)"/>
          </coding>
        </code>
        <subject>
          <reference value="urn:uuid:111d5e66-f17e-4369-90c6-9382e566040e"/>
          <display value="Kind"/>
        </subject>
        <encounter>
          <reference value="urn:uuid:833fd8f2-b75f-4dba-990f-6c46aa468d51"/>
          <display value="Untersuchung Kind, 27.03.2025"/>
        </encounter>
        <effectiveDateTime value="2025-03-27"/>
        <performer>
          <reference value="urn:uuid:89029102-999c-4b69-a836-e4dbfbd55527"/>
          <display value="Tanja Allesgut @ Geburtsklinik"/>
        </performer>
        <valueString value="110 /min"/>
      </Observation>
    </resource>
  </entry>
  <entry>
    <fullUrl value="urn:uuid:a5c14df0-3dca-4530-a22a-072af14178b1"/>
    <resource>
      <Observation>
        <id value="a5c14df0-3dca-4530-a22a-072af14178b1"/>
        <language value="de-CH"/>
        <text>
          <status value="generated"/><div xmlns="http://www.w3.org/1999/xhtml" xml:lang="de-CH" lang="de-CH"><a name="Observation_a5c14df0-3dca-4530-a22a-072af14178b1"> </a><p class="res-header-id"><b>Generated Narrative: Observation a5c14df0-3dca-4530-a22a-072af14178b1</b></p><a name="a5c14df0-3dca-4530-a22a-072af14178b1"> </a><a name="hca5c14df0-3dca-4530-a22a-072af14178b1"> </a><a name="a5c14df0-3dca-4530-a22a-072af14178b1-en-US"> </a><div style="display: inline-block; background-color: #d9e0e7; padding: 6px; margin: 4px; border: 1px solid #8da1b4; border-radius: 5px; line-height: 60%"><p style="margin-bottom: 0px">Language: de-CH</p></div><p><b>status</b>: Final</p><p><b>code</b>: <span title="Codes:{http://snomed.info/sct 364607000}">Position of fetus (observable entity)</span></p><p><b>subject</b>: <a href="Bundle-UC2-Document.html#urn-uuid-111d5e66-f17e-4369-90c6-9382e566040e">Kind</a></p><p><b>encounter</b>: <a href="Bundle-UC2-Document.html#urn-uuid-833fd8f2-b75f-4dba-990f-6c46aa468d51">Untersuchung Kind, 27.03.2025</a></p><p><b>effective</b>: 2025-03-27</p><p><b>performer</b>: <a href="Bundle-UC2-Document.html#urn-uuid-89029102-999c-4b69-a836-e4dbfbd55527">Tanja Allesgut @ Geburtsklinik</a></p><p><b>value</b>: <span title="Codes:{http://snomed.info/sct 6096002}">Steisslage</span></p></div>
        </text>
        <status value="final"/>
        <code>
          <coding>
            <system value="http://snomed.info/sct"/>
            <code value="364607000"/>
            <display value="Position of fetus (observable entity)"/>
          </coding>
        </code>
        <subject>
          <reference value="urn:uuid:111d5e66-f17e-4369-90c6-9382e566040e"/>
          <display value="Kind"/>
        </subject>
        <encounter>
          <reference value="urn:uuid:833fd8f2-b75f-4dba-990f-6c46aa468d51"/>
          <display value="Untersuchung Kind, 27.03.2025"/>
        </encounter>
        <effectiveDateTime value="2025-03-27"/>
        <performer>
          <reference value="urn:uuid:89029102-999c-4b69-a836-e4dbfbd55527"/>
          <display value="Tanja Allesgut @ Geburtsklinik"/>
        </performer>
        <valueCodeableConcept>
          <coding>
            <system value="http://snomed.info/sct"/>
            <code value="6096002"/>
            <display value="Breech presentation (finding)"/>
          </coding>
          <text value="Steisslage"/>
        </valueCodeableConcept>
      </Observation>
    </resource>
  </entry>
  <entry>
    <fullUrl value="urn:uuid:4a907770-6665-4fb4-b186-afd0ddf48742"/>
    <resource>
      <Observation>
        <id value="4a907770-6665-4fb4-b186-afd0ddf48742"/>
        <language value="de-CH"/>
        <text>
          <status value="generated"/><div xmlns="http://www.w3.org/1999/xhtml" xml:lang="de-CH" lang="de-CH"><a name="Observation_4a907770-6665-4fb4-b186-afd0ddf48742"> </a><p class="res-header-id"><b>Generated Narrative: Observation 4a907770-6665-4fb4-b186-afd0ddf48742</b></p><a name="4a907770-6665-4fb4-b186-afd0ddf48742"> </a><a name="hc4a907770-6665-4fb4-b186-afd0ddf48742"> </a><a name="4a907770-6665-4fb4-b186-afd0ddf48742-en-US"> </a><div style="display: inline-block; background-color: #d9e0e7; padding: 6px; margin: 4px; border: 1px solid #8da1b4; border-radius: 5px; line-height: 60%"><p style="margin-bottom: 0px">Language: de-CH</p></div><p><b>status</b>: Final</p><p><b>code</b>: <span title="Codes:{http://snomed.info/sct 364607000}">Position of fetus (observable entity)</span></p><p><b>subject</b>: <a href="Bundle-UC2-Document.html#urn-uuid-111d5e66-f17e-4369-90c6-9382e566040e">Kind</a></p><p><b>encounter</b>: <a href="Bundle-UC2-Document.html#urn-uuid-8e89c502-964f-4234-9728-540d881b0380">Untersuchung Mutter, 26.03.2025</a></p><p><b>effective</b>: 2025-03-26</p><p><b>performer</b>: <a href="Bundle-UC2-Document.html#urn-uuid-89029102-999c-4b69-a836-e4dbfbd55527">Tanja Allesgut @ Geburtsklinik</a></p><p><b>value</b>: <span title="Codes:{http://snomed.info/sct 6096002}">Steisslage</span></p></div>
        </text>
        <status value="final"/>
        <code>
          <coding>
            <system value="http://snomed.info/sct"/>
            <code value="364607000"/>
            <display value="Position of fetus (observable entity)"/>
          </coding>
        </code>
        <subject>
          <reference value="urn:uuid:111d5e66-f17e-4369-90c6-9382e566040e"/>
          <display value="Kind"/>
        </subject>
        <encounter>
          <reference value="urn:uuid:8e89c502-964f-4234-9728-540d881b0380"/>
          <display value="Untersuchung Mutter, 26.03.2025"/>
        </encounter>
        <effectiveDateTime value="2025-03-26"/>
        <performer>
          <reference value="urn:uuid:89029102-999c-4b69-a836-e4dbfbd55527"/>
          <display value="Tanja Allesgut @ Geburtsklinik"/>
        </performer>
        <valueCodeableConcept>
          <coding>
            <system value="http://snomed.info/sct"/>
            <code value="6096002"/>
            <display value="Breech presentation (finding)"/>
          </coding>
          <text value="Steisslage"/>
        </valueCodeableConcept>
      </Observation>
    </resource>
  </entry>
  <entry>
    <fullUrl value="urn:uuid:4b9ca365-383e-41c8-9bac-b3c79aea1c7e"/>
    <resource>
      <Observation>
        <id value="4b9ca365-383e-41c8-9bac-b3c79aea1c7e"/>
        <language value="de-CH"/>
        <text>
          <status value="generated"/><div xmlns="http://www.w3.org/1999/xhtml" xml:lang="de-CH" lang="de-CH"><a name="Observation_4b9ca365-383e-41c8-9bac-b3c79aea1c7e"> </a><p class="res-header-id"><b>Generated Narrative: Observation 4b9ca365-383e-41c8-9bac-b3c79aea1c7e</b></p><a name="4b9ca365-383e-41c8-9bac-b3c79aea1c7e"> </a><a name="hc4b9ca365-383e-41c8-9bac-b3c79aea1c7e"> </a><a name="4b9ca365-383e-41c8-9bac-b3c79aea1c7e-en-US"> </a><div style="display: inline-block; background-color: #d9e0e7; padding: 6px; margin: 4px; border: 1px solid #8da1b4; border-radius: 5px; line-height: 60%"><p style="margin-bottom: 0px">Language: de-CH</p></div><p><b>status</b>: Final</p><p><b>code</b>: <span title="Codes:{http://loinc.org 72516-8}">Glucose [Moles/volume] in Blood by Automated test strip</span></p><p><b>subject</b>: <a href="Bundle-UC2-Document.html#urn-uuid-76c2c5aa-3d7f-438d-b23d-56ce827695fd">Fabienne Babyglück</a></p><p><b>encounter</b>: <a href="Bundle-UC2-Document.html#urn-uuid-1ba6df42-ae1a-4b4a-886f-33d6b2223b1f">Untersuchung Mutter, 27.03.2025</a></p><p><b>effective</b>: 2025-03-27</p><p><b>performer</b>: <a href="Bundle-UC2-Document.html#urn-uuid-89029102-999c-4b69-a836-e4dbfbd55527">Tanja Allesgut @ Geburtsklinik</a></p><p><b>value</b>: 3.9 millimole per liter<span style="background: LightGoldenRodYellow"> (Details: UCUM  codemmol/L = 'mmol/L')</span></p></div>
        </text>
        <status value="final"/>
        <code>
          <coding>
            <system value="http://loinc.org"/>
            <code value="72516-8"/>
            <display value="Glucose [Moles/volume] in Blood by Automated test strip"/>
          </coding>
        </code>
        <subject>
          <reference value="urn:uuid:76c2c5aa-3d7f-438d-b23d-56ce827695fd"/>
          <display value="Fabienne Babyglück"/>
        </subject>
        <encounter>
          <reference value="urn:uuid:1ba6df42-ae1a-4b4a-886f-33d6b2223b1f"/>
          <display value="Untersuchung Mutter, 27.03.2025"/>
        </encounter>
        <effectiveDateTime value="2025-03-27"/>
        <performer>
          <reference value="urn:uuid:89029102-999c-4b69-a836-e4dbfbd55527"/>
          <display value="Tanja Allesgut @ Geburtsklinik"/>
        </performer>
        <valueQuantity>
          <value value="3.9"/>
          <unit value="millimole per liter"/>
          <system value="http://unitsofmeasure.org"/>
          <code value="mmol/L"/>
        </valueQuantity>
      </Observation>
    </resource>
  </entry>
  <entry>
    <fullUrl value="urn:uuid:bbd6f1bc-1d87-4c90-a313-98bea06c3dfb"/>
    <resource>
      <Observation>
        <id value="bbd6f1bc-1d87-4c90-a313-98bea06c3dfb"/>
        <language value="de-CH"/>
        <text>
          <status value="generated"/><div xmlns="http://www.w3.org/1999/xhtml" xml:lang="de-CH" lang="de-CH"><a name="Observation_bbd6f1bc-1d87-4c90-a313-98bea06c3dfb"> </a><p class="res-header-id"><b>Generated Narrative: Observation bbd6f1bc-1d87-4c90-a313-98bea06c3dfb</b></p><a name="bbd6f1bc-1d87-4c90-a313-98bea06c3dfb"> </a><a name="hcbbd6f1bc-1d87-4c90-a313-98bea06c3dfb"> </a><a name="bbd6f1bc-1d87-4c90-a313-98bea06c3dfb-en-US"> </a><div style="display: inline-block; background-color: #d9e0e7; padding: 6px; margin: 4px; border: 1px solid #8da1b4; border-radius: 5px; line-height: 60%"><p style="margin-bottom: 0px">Language: de-CH</p></div><p><b>status</b>: Final</p><p><b>code</b>: <span title="Codes:{http://loinc.org 72516-8}">Glucose [Moles/volume] in Blood by Automated test strip</span></p><p><b>subject</b>: <a href="Bundle-UC2-Document.html#urn-uuid-76c2c5aa-3d7f-438d-b23d-56ce827695fd">Fabienne Babyglück</a></p><p><b>encounter</b>: <a href="Bundle-UC2-Document.html#urn-uuid-8e89c502-964f-4234-9728-540d881b0380">Untersuchung Mutter, 26.03.2025</a></p><p><b>effective</b>: 2025-03-26</p><p><b>performer</b>: <a href="Bundle-UC2-Document.html#urn-uuid-89029102-999c-4b69-a836-e4dbfbd55527">Tanja Allesgut @ Geburtsklinik</a></p><p><b>value</b>: 4.7 millimole per liter<span style="background: LightGoldenRodYellow"> (Details: UCUM  codemmol/L = 'mmol/L')</span></p></div>
        </text>
        <status value="final"/>
        <code>
          <coding>
            <system value="http://loinc.org"/>
            <code value="72516-8"/>
            <display value="Glucose [Moles/volume] in Blood by Automated test strip"/>
          </coding>
        </code>
        <subject>
          <reference value="urn:uuid:76c2c5aa-3d7f-438d-b23d-56ce827695fd"/>
          <display value="Fabienne Babyglück"/>
        </subject>
        <encounter>
          <reference value="urn:uuid:8e89c502-964f-4234-9728-540d881b0380"/>
          <display value="Untersuchung Mutter, 26.03.2025"/>
        </encounter>
        <effectiveDateTime value="2025-03-26"/>
        <performer>
          <reference value="urn:uuid:89029102-999c-4b69-a836-e4dbfbd55527"/>
          <display value="Tanja Allesgut @ Geburtsklinik"/>
        </performer>
        <valueQuantity>
          <value value="4.7"/>
          <unit value="millimole per liter"/>
          <system value="http://unitsofmeasure.org"/>
          <code value="mmol/L"/>
        </valueQuantity>
      </Observation>
    </resource>
  </entry>
  <entry>
    <fullUrl value="urn:uuid:1ce882f2-953f-428e-a90b-a55271020fca"/>
    <resource>
      <Observation>
        <id value="1ce882f2-953f-428e-a90b-a55271020fca"/>
        <language value="de-CH"/>
        <text>
          <status value="generated"/><div xmlns="http://www.w3.org/1999/xhtml" xml:lang="de-CH" lang="de-CH"><a name="Observation_1ce882f2-953f-428e-a90b-a55271020fca"> </a><p class="res-header-id"><b>Generated Narrative: Observation 1ce882f2-953f-428e-a90b-a55271020fca</b></p><a name="1ce882f2-953f-428e-a90b-a55271020fca"> </a><a name="hc1ce882f2-953f-428e-a90b-a55271020fca"> </a><a name="1ce882f2-953f-428e-a90b-a55271020fca-en-US"> </a><div style="display: inline-block; background-color: #d9e0e7; padding: 6px; margin: 4px; border: 1px solid #8da1b4; border-radius: 5px; line-height: 60%"><p style="margin-bottom: 0px">Language: de-CH</p></div><p><b>status</b>: Final</p><p><b>code</b>: <span title="Codes:{http://loinc.org 70387-6}">I am bothered by reflux or heartburn in the past 7 days [FACIT]</span></p><p><b>subject</b>: <a href="Bundle-UC2-Document.html#urn-uuid-76c2c5aa-3d7f-438d-b23d-56ce827695fd">Fabienne Babyglück</a></p><p><b>encounter</b>: <a href="Bundle-UC2-Document.html#urn-uuid-1ba6df42-ae1a-4b4a-886f-33d6b2223b1f">Untersuchung Mutter, 27.03.2025</a></p><p><b>effective</b>: 2025-03-27</p><p><b>performer</b>: <a href="Bundle-UC2-Document.html#urn-uuid-89029102-999c-4b69-a836-e4dbfbd55527">Tanja Allesgut @ Geburtsklinik</a></p><p><b>value</b>: true</p></div>
        </text>
        <status value="final"/>
        <code>
          <coding>
            <system value="http://loinc.org"/>
            <code value="70387-6"/>
            <display value="I am bothered by reflux or heartburn in the past 7 days [FACIT]"/>
          </coding>
        </code>
        <subject>
          <reference value="urn:uuid:76c2c5aa-3d7f-438d-b23d-56ce827695fd"/>
          <display value="Fabienne Babyglück"/>
        </subject>
        <encounter>
          <reference value="urn:uuid:1ba6df42-ae1a-4b4a-886f-33d6b2223b1f"/>
          <display value="Untersuchung Mutter, 27.03.2025"/>
        </encounter>
        <effectiveDateTime value="2025-03-27"/>
        <performer>
          <reference value="urn:uuid:89029102-999c-4b69-a836-e4dbfbd55527"/>
          <display value="Tanja Allesgut @ Geburtsklinik"/>
        </performer>
        <valueBoolean value="true"/>
      </Observation>
    </resource>
  </entry>
</Bundle>