<?xml version="1.0" encoding="UTF-8"?>

<Bundle xmlns="http://hl7.org/fhir">
  <id value="11Doc-Malaria"/>
  <identifier>
    <system value="urn:ietf:rfc:3986"/>
    <value value="urn:uuid:1904332d-6012-443f-9690-9291adb234fe"/>
  </identifier>
  <type value="document"/>
  <timestamp value="2023-09-15T11:00:00+02:00"/>
  <entry>
    <fullUrl value="urn:uuid:c86447fc-1d7d-4365-b2a4-fd50da374dc4"/>
    <resource>
      <Composition>
        <id value="c86447fc-1d7d-4365-b2a4-fd50da374dc4"/>
        <language value="de-CH"/>
        <identifier>
          <system value="urn:ietf:rfc:3986"/>
          <value value="urn:uuid:1904332d-6012-443f-9690-9291adb234fe"/>
        </identifier>
        <status value="final"/>
        <type>
          <coding>
            <system value="http://snomed.info/sct"/>
            <version value="http://snomed.info/sct/2011000195101"/>
            <code value="4241000179101"/>
            <display value="Laborbericht"/>
          </coding>
          <coding>
            <system value="http://loinc.org"/>
            <code value="11502-2"/>
            <display value="Laboratory report"/>
          </coding>
        </type>
        <subject>
          <reference value="urn:uuid:53d74b79-32de-4bf2-91a6-8f94d0def5eb"/>
        </subject>
        <date value="2023-09-15T11:00:00+02:00"/>
        <author>
          <reference value="urn:uuid:187f9b81-4cbc-4f55-901c-bc7cadaf008f"/>
        </author>
        <title value="Laborbericht vom 15.09.2023"/>
        <section>
          <title value="Analyseergebnisse der mikrobiologischen Untersuchung"/>
          <code>
            <coding>
              <system value="http://loinc.org"/>
              <code value="18725-2"/>
              <display value="Microbiology studies (set)"/>
            </coding>
          </code>
          <entry>
            <reference value="urn:uuid:eb5a2099-383b-4802-84a3-c3f21417d4b0"/>
          </entry>
        </section>
      </Composition>
    </resource>
  </entry>
  <entry>
    <fullUrl value="urn:uuid:53d74b79-32de-4bf2-91a6-8f94d0def5eb"/>
    <resource>
      <Patient>
        <id value="53d74b79-32de-4bf2-91a6-8f94d0def5eb"/>
        <identifier>
          <system value="urn:oid:2.16.756.5.32"/>
          <value value="7561234567897"/>
        </identifier>
        <name>
          <family value="Dupont"/>
          <given value="Antoine"/>
        </name>
        <gender value="female"/>
        <birthDate value="1981-02-07"/>
        <address>
          <use value="home"/>
          <line value="rue de la république 10">
            <extension url="http://hl7.org/fhir/StructureDefinition/iso21090-ADXP-streetName">
              <valueString value="rue de la république"/>
            </extension>
            <extension url="http://hl7.org/fhir/StructureDefinition/iso21090-ADXP-houseNumber">
              <valueString value="10"/>
            </extension>
          </line>
          <city value="Carouge"/>
          <state value="GE"/>
          <postalCode value="1227"/>
          <country value="CH">
            <extension url="http://hl7.org/fhir/StructureDefinition/iso21090-SC-coding">
              <valueCoding>
                <system value="urn:iso:std:iso:3166"/>
                <code value="CH"/>
              </valueCoding>
            </extension>
          </country>
        </address>
      </Patient>
    </resource>
  </entry>
  <entry>
    <fullUrl value="urn:uuid:187f9b81-4cbc-4f55-901c-bc7cadaf008f"/>
    <resource>
      <Organization>
        <id value="187f9b81-4cbc-4f55-901c-bc7cadaf008f"/>
        <identifier>
          <system value="urn:oid:2.51.1.3"/>
          <value value="7601002331470"/>
        </identifier>
        <name value="SanLab"/>
      </Organization>
    </resource>
  </entry>
  <entry>
    <fullUrl value="urn:uuid:eb5a2099-383b-4802-84a3-c3f21417d4b0"/>
    <resource>
      <Observation>
        <id value="eb5a2099-383b-4802-84a3-c3f21417d4b0"/>
        <status value="final"/>
        <category>
          <coding>
            <system value="http://terminology.hl7.org/CodeSystem/observation-category"/>
            <code value="laboratory"/>
            <display value="Laboratory"/>
          </coding>
        </category>
        <code>
          <coding>
            <system value="http://loinc.org"/>
            <code value="70568-1"/>
          </coding>
        </code>
        <subject>
          <reference value="urn:uuid:53d74b79-32de-4bf2-91a6-8f94d0def5eb"/>
        </subject>
        <effectiveDateTime value="2023-09-15T09:15:00+02:00"/>
        <performer>
          <reference value="urn:uuid:187f9b81-4cbc-4f55-901c-bc7cadaf008f"/>
        </performer>
        <valueCodeableConcept>
          <coding>
            <system value="http://snomed.info/sct"/>
            <code value="10828004"/>
            <display value="Positive (qualifier value)"/>
          </coding>
        </valueCodeableConcept>
        <interpretation>
          <coding>
            <system value="http://terminology.hl7.org/CodeSystem/v3-ObservationInterpretation"/>
            <code value="POS"/>
            <display value="Positive"/>
          </coding>
        </interpretation>
        <specimen>
          <reference value="urn:uuid:f8ddac96-d84d-4bad-934b-48deff10bbf3"/>
        </specimen>
      </Observation>
    </resource>
  </entry>
  <entry>
    <fullUrl value="urn:uuid:6d81a36f-b838-4c71-b20c-22c8607ec1d2"/>
    <resource>
      <Practitioner>
        <id value="6d81a36f-b838-4c71-b20c-22c8607ec1d2"/>
        <identifier>
          <system value="urn:oid:2.51.1.3"/>
          <value value="7601000234438"/>
        </identifier>
        <name>
          <family value="Giacometti"/>
          <given value="Monika"/>
        </name>
        <telecom>
          <system value="phone"/>
          <value value="+41 79 111 44 55"/>
        </telecom>
        <telecom>
          <system value="email"/>
          <value value="m.giacometti@ks-abc.ch"/>
        </telecom>
      </Practitioner>
    </resource>
  </entry>
  <entry>
    <fullUrl value="urn:uuid:6fcf633f-8c5e-44dd-a8ed-8b1e28e6151c"/>
    <resource>
      <Organization>
        <id value="6fcf633f-8c5e-44dd-a8ed-8b1e28e6151c"/>
        <identifier>
          <system value="urn:oid:2.16.756.5.45"/>
          <value value="A99684215"/>
        </identifier>
        <name value="Kantonsspital ABC"/>
        <address>
          <line value="Aortastrasse 22">
            <extension url="http://hl7.org/fhir/StructureDefinition/iso21090-ADXP-streetName">
              <valueString value="Aortastrasse"/>
            </extension>
            <extension url="http://hl7.org/fhir/StructureDefinition/iso21090-ADXP-houseNumber">
              <valueString value="22"/>
            </extension>
            <extension url="http://hl7.org/fhir/StructureDefinition/iso21090-ADXP-postBox">
              <valueString value="Postfach 18"/>
            </extension>
          </line>
          <city value="Bern"/>
          <postalCode value="3000"/>
        </address>
      </Organization>
    </resource>
  </entry>
  <entry>
    <fullUrl value="urn:uuid:6f70294f-29c1-47c8-ab44-16469d49e9cf"/>
    <resource>
      <PractitionerRole>
        <id value="6f70294f-29c1-47c8-ab44-16469d49e9cf"/>
        <practitioner>
          <reference value="urn:uuid:6d81a36f-b838-4c71-b20c-22c8607ec1d2"/>
        </practitioner>
        <organization>
          <reference value="urn:uuid:6fcf633f-8c5e-44dd-a8ed-8b1e28e6151c"/>
        </organization>
      </PractitionerRole>
    </resource>
  </entry>
  <entry>
    <fullUrl value="urn:uuid:f8ddac96-d84d-4bad-934b-48deff10bbf3"/>
    <resource>
      <Specimen>
        <id value="f8ddac96-d84d-4bad-934b-48deff10bbf3"/>
        <type>
          <text value="Material declared by Observation.code or non-mandatory"/>
        </type>
        <subject>
          <reference value="urn:uuid:53d74b79-32de-4bf2-91a6-8f94d0def5eb"/>
        </subject>
        <collection>
          <collectedDateTime value="2023-09-12"/>
        </collection>
      </Specimen>
    </resource>
  </entry>
  <entry>
    <fullUrl value="urn:uuid:602b8d60-9104-4737-86f6-7770b0eecdcb"/>
    <resource>
      <ServiceRequest>
        <id value="602b8d60-9104-4737-86f6-7770b0eecdcb"/>
        <identifier>
          <value value="23846922417"/>
        </identifier>
        <status value="completed"/>
        <intent value="order"/>
        <code>
          <coding>
            <system value="http://loinc.org"/>
            <code value="70568-1"/>
          </coding>
        </code>
        <subject>
          <reference value="urn:uuid:53d74b79-32de-4bf2-91a6-8f94d0def5eb"/>
        </subject>
        <requester>
          <reference value="urn:uuid:6f70294f-29c1-47c8-ab44-16469d49e9cf"/>
        </requester>
        <specimen>
          <reference value="urn:uuid:f8ddac96-d84d-4bad-934b-48deff10bbf3"/>
        </specimen>
      </ServiceRequest>
    </resource>
  </entry>
  <entry>
    <fullUrl value="urn:uuid:80fa1a58-c692-4a4b-98a3-764f79b8fc93"/>
    <resource>
      <DiagnosticReport>
        <id value="80fa1a58-c692-4a4b-98a3-764f79b8fc93"/>
        <extension url="http://hl7.org/fhir/5.0/StructureDefinition/extension-DiagnosticReport.composition">
          <valueReference>
            <reference value="urn:uuid:c86447fc-1d7d-4365-b2a4-fd50da374dc4"/>
          </valueReference>
        </extension>
        <identifier>
          <system value="urn:ietf:rfc:3986"/>
          <value value="urn:uuid:1904332d-6012-443f-9690-9291adb234fe"/>
        </identifier>
        <basedOn>
          <reference value="urn:uuid:602b8d60-9104-4737-86f6-7770b0eecdcb"/>
        </basedOn>
        <status value="final"/>
        <code>
          <coding>
            <system value="http://loinc.org"/>
            <code value="11502-2"/>
            <display value="Laboratory report"/>
          </coding>
        </code>
        <subject>
          <reference value="urn:uuid:53d74b79-32de-4bf2-91a6-8f94d0def5eb"/>
        </subject>
        <performer>
          <reference value="urn:uuid:187f9b81-4cbc-4f55-901c-bc7cadaf008f"/>
        </performer>
        <specimen>
          <reference value="urn:uuid:f8ddac96-d84d-4bad-934b-48deff10bbf3"/>
        </specimen>
        <result>
          <reference value="urn:uuid:eb5a2099-383b-4802-84a3-c3f21417d4b0"/>
        </result>
      </DiagnosticReport>
    </resource>
  </entry>
</Bundle>