{
  "resourceType": "Bundle",
  "id": "A4-MedicationCard-DrMonney",
  "meta": {
    "lastUpdated": "2020-04-20T11:00:00+01:00",
    "profile": [
      "http://chmed20af.emediplan.ch/fhir/StructureDefinition/chmed20af-card-bundle"
    ]
  },
  "identifier": {
    "system": "http://emediplan.ch/chmed20af/id",
    "value": "26d3dff7-ab05-4737-a49c-5eccd3359a4b"
  },
  "type": "document",
  "timestamp": "2020-03-10T11:00:00+01:00",
  "entry": [
    {
      "fullUrl": "http://test.fhir.ch/r4/Composition/A4-CompReniten-Monney",
      "resource": {
        "resourceType": "Composition",
        "id": "A4-CompReniten-Monney",
        "language": "de-CH",
        "text": {
          "status": "generated",
          "div": "<div xmlns=\"http://www.w3.org/1999/xhtml\" xml:lang=\"de-CH\" lang=\"de-CH\"><p><b>Generated Narrative with Details</b></p><p><b>id</b>: A4-CompReniten-Monney</p><p><b>language</b>: de-CH</p><p><b>identifier</b>: 26d3dff7-ab05-4737-a49c-5eccd3359a4b</p><p><b>status</b>: final</p><p><b>type</b>: Medication summary document (record artifact) <span style=\"background: LightGoldenRodYellow\">(Details : {SNOMED CT code '721912009' = 'Medication summary document (record artifact)', given as 'Medication summary document (record artifact)'})</span></p><p><b>date</b>: Mar 10, 2020, 11:00:00 AM</p><p><b>author</b>: <a href=\"#backboneelement_SpezialistMonney\">Generated Summary: unknown resource entry</a></p><p><b>title</b>: Medikationsplan</p><p><b>confidentiality</b>: N</p><p><b>custodian</b>: <a href=\"#backboneelement_Spezialist\">Generated Summary: unknown resource entry</a></p></div>"
        },
        "extension": [
          {
            "url": "http://chmed20af.emediplan.ch/fhir/StructureDefinition/chmed20af-inputdocumentsource",
            "valueString": "Cara"
          },
          {
            "url": "http://fhir.ch/ig/ch-core/StructureDefinition/ch-ext-epr-setid",
            "valueIdentifier": {
              "system": "http://emediplan.ch/chmed20af/id",
              "value": "26d3dff7-ab05-4737-a49c-5eccd3359a4b"
            }
          },
          {
            "url": "http://fhir.ch/ig/ch-core/StructureDefinition/ch-ext-epr-versionnumber",
            "valueUnsignedInt": 1
          },
          {
            "url": "http://fhir.ch/ig/ch-core/StructureDefinition/ch-ext-epr-informationrecipient",
            "valueReference": {
              "reference": "Patient/MonikaWegmuellerRecipient"
            }
          }
        ],
        "identifier": {
          "system": "http://emediplan.ch/chmed20af/id",
          "value": "26d3dff7-ab05-4737-a49c-5eccd3359a4b"
        },
        "status": "final",
        "type": {
          "coding": [
            {
              "system": "http://snomed.info/sct",
              "code": "721912009",
              "display": "Medication summary document (record artifact)"
            }
          ]
        },
        "subject": {
          "reference": "Patient/MonikaWegmueller"
        },
        "date": "2020-03-10T11:00:00+01:00",
        "author": [
          {
            "reference": "Practitioner/SpezialistMonney"
          }
        ],
        "title": "Medikationsplan",
        "confidentiality": "N",
        "_confidentiality": {
          "extension": [
            {
              "url": "http://fhir.ch/ig/ch-core/StructureDefinition/ch-ext-epr-confidentialitycode",
              "valueCodeableConcept": {
                "coding": [
                  {
                    "system": "http://snomed.info/sct",
                    "code": "17621005",
                    "display": "Normally accessible"
                  }
                ]
              }
            }
          ]
        },
        "custodian": {
          "reference": "Organization/Spezialist"
        },
        "section": [
          {
            "title": "Aktuelle Medikation",
            "code": {
              "coding": [
                {
                  "system": "http://loinc.org",
                  "code": "10160-0",
                  "display": "History of medication use"
                }
              ]
            },
            "text": {
              "status": "additional",
              "div": "<div xmlns=\"http://www.w3.org/1999/xhtml\"> Aktuelle Medikation </div>"
            },
            "entry": [
              {
                "reference": "MedicationStatement/A4-MedStatReniten-Monney"
              }
            ]
          }
        ]
      }
    },
    {
      "fullUrl": "http://test.fhir.ch/r4/Patient/MonikaWegmueller",
      "resource": {
        "resourceType": "Patient",
        "id": "MonikaWegmueller",
        "text": {
          "status": "generated",
          "div": "<div xmlns=\"http://www.w3.org/1999/xhtml\"><p><b>Generated Narrative with Details</b></p><p><b>id</b>: MonikaWegmueller</p><p><b>identifier</b>: Medical record number = 11111111</p><p><b>name</b>: Monika Wegmüller </p><p><b>gender</b>: female</p><p><b>birthDate</b>: 1943-05-15</p><p><b>address</b>: Wiesenstr. 12 Zürich 8003 CH </p></div>"
        },
        "identifier": [
          {
            "type": {
              "coding": [
                {
                  "system": "http://terminology.hl7.org/CodeSystem/v2-0203",
                  "code": "MR"
                }
              ]
            },
            "system": "urn:oid:2.999",
            "value": "11111111"
          }
        ],
        "name": [
          {
            "family": "Wegmüller",
            "given": [
              "Monika"
            ]
          }
        ],
        "gender": "female",
        "birthDate": "1943-05-15",
        "address": [
          {
            "line": [
              "Wiesenstr. 12"
            ],
            "city": "Zürich",
            "postalCode": "8003",
            "country": "CH"
          }
        ]
      }
    },
    {
      "fullUrl": "http://test.fhir.ch/r4/Practitioner/SpezialistMonney",
      "resource": {
        "resourceType": "Practitioner",
        "id": "SpezialistMonney",
        "text": {
          "status": "generated",
          "div": "<div xmlns=\"http://www.w3.org/1999/xhtml\"><p><b>Generated Narrative with Details</b></p><p><b>id</b>: SpezialistMonney</p><p><b>identifier</b>: 7601000239933</p><p><b>name</b>: Spezialist Monney </p></div>"
        },
        "identifier": [
          {
            "system": "urn:oid:2.51.1.3",
            "value": "7601000239933"
          }
        ],
        "name": [
          {
            "family": "Monney",
            "given": [
              "Spezialist"
            ]
          }
        ]
      }
    },
    {
      "fullUrl": "http://test.fhir.ch/r4/Organization/Spezialist",
      "resource": {
        "resourceType": "Organization",
        "id": "Spezialist",
        "text": {
          "status": "generated",
          "div": "<div xmlns=\"http://www.w3.org/1999/xhtml\"><p><b>Generated Narrative with Details</b></p><p><b>id</b>: Spezialist</p><p><b>identifier</b>: 7601000239933</p><p><b>name</b>: Spezialist</p></div>"
        },
        "identifier": [
          {
            "system": "urn:oid:2.51.1.3",
            "value": "7601000239933"
          }
        ],
        "name": "Spezialist"
      }
    },
    {
      "fullUrl": "http://test.fhir.ch/r4/Patient/MonikaWegmuellerRecipient",
      "resource": {
        "resourceType": "Patient",
        "id": "MonikaWegmuellerRecipient",
        "text": {
          "status": "generated",
          "div": "<div xmlns=\"http://www.w3.org/1999/xhtml\"><p><b>Generated Narrative with Details</b></p><p><b>id</b>: MonikaWegmuellerRecipient</p><p><b>name</b>: Monika Wegmüller </p><p><b>address</b>: Wiesenstr. 12 Zürich 8003 CH </p></div>"
        },
        "name": [
          {
            "family": "Wegmüller",
            "given": [
              "Monika"
            ]
          }
        ],
        "address": [
          {
            "line": [
              "Wiesenstr. 12"
            ],
            "city": "Zürich",
            "postalCode": "8003",
            "country": "CH"
          }
        ]
      }
    },
    {
      "fullUrl": "http://test.fhir.ch/r4/MedicationStatement/A4-MedStatReniten-Monney",
      "resource": {
        "resourceType": "MedicationStatement",
        "id": "A1-MedStatReniten-Monney",
        "text": {
          "status": "generated",
          "div": "<div xmlns=\"http://www.w3.org/1999/xhtml\"><p><b>Generated Narrative with Details</b></p><p><b>id</b>: A1-MedStatReniten-Monney</p><p><b>contained</b>: </p><p><b>status</b>: completed</p><p><b>category</b>: Kardiovaskuläres System <span style=\"background: LightGoldenRodYellow\">(Details : {http://www.whocc.no/atc code 'C' = 'C', given as 'Kardiovaskuläres System'})</span></p><p><b>medication</b>: unknown resource contained</p><p><b>subject</b>: <a href=\"#backboneelement_MonikaWegmueller\">Generated Summary: unknown resource entry</a></p><p><b>reasonCode</b>: Bluthochdruck <span style=\"background: LightGoldenRodYellow\">(Details )</span></p><p><b>dosage</b>: , </p></div>"
        },
        "contained": [
          {
            "resourceType": "Medication",
            "id": "cont1",
            "code": {
              "coding": [
                {
                  "system": "urn:oid:2.51.1.1",
                  "code": "7680460380299",
                  "display": "RENITEN Tabl 20 mg"
                }
              ],
              "text": "RENITEN Tabl 20 mg"
            },
            "form": {
              "coding": [
                {
                  "system": "urn:oid:0.4.0.127.0.16.1.1.2.1",
                  "code": "10219000",
                  "display": "Tablet"
                }
              ]
            },
            "amount": {
              "numerator": {
                "value": 98
              },
              "denominator": {
                "value": 1
              }
            },
            "ingredient": [
              {
                "itemCodeableConcept": {
                  "coding": [
                    {
                      "system": "http://snomed.info/sct",
                      "code": "387165009",
                      "display": "Enalapril maleate (substance)"
                    }
                  ]
                },
                "strength": {
                  "numerator": {
                    "value": 20,
                    "unit": "mg"
                  },
                  "denominator": {
                    "value": 1
                  }
                }
              }
            ]
          }
        ],
        "status": "completed",
        "category": {
          "coding": [
            {
              "system": "http://www.whocc.no/atc",
              "code": "C",
              "display": "Kardiovaskuläres System"
            }
          ]
        },
        "medicationReference": {
          "reference": "#cont1"
        },
        "subject": {
          "reference": "Patient/MonikaWegmueller"
        },
        "reasonCode": [
          {
            "text": "Bluthochdruck"
          }
        ],
        "dosage": [
          {
            "text": "1 Tablette morgens"
          },
          {
            "timing": {
              "repeat": {
                "boundsPeriod": {
                  "start": "2020-03-10"
                },
                "when": [
                  "CM"
                ]
              }
            },
            "route": {
              "coding": [
                {
                  "system": "urn:oid:0.4.0.127.0.16.1.1.2.1",
                  "code": "20053000",
                  "display": "Oral use"
                }
              ]
            },
            "doseAndRate": [
              {
                "doseQuantity": {
                  "value": 1,
                  "unit": "Tablette",
                  "system": "http://unitsofmeasure.org",
                  "code": "1"
                }
              }
            ]
          }
        ]
      }
    }
  ]
}