{
  "resourceType": "Bundle",
  "id": "A7-ConsolidatedMedicationCard",
  "meta": {
    "profile": [
      "http://chmed20af.emediplan.ch/fhir/StructureDefinition/chmed20af-analyzer-bundle"
    ]
  },
  "identifier": {
    "system": "http://emediplan.ch/chmed20af/id",
    "value": "26d3dff7-ab05-4737-a49c-5eccd33511a7"
  },
  "type": "document",
  "timestamp": "2020-02-01T09:30:00+01:00",
  "entry": [
    {
      "fullUrl": "http://test.fhir.ch/r4/Composition/A7-Analyzer",
      "resource": {
        "resourceType": "Composition",
        "id": "A7-Analyzer",
        "meta": {
          "profile": [
            "http://chmed20af.emediplan.ch/fhir/StructureDefinition/chmed20af-analyzer-composition"
          ]
        },
        "text": {
          "status": "generated",
          "div": "<div xmlns=\"http://www.w3.org/1999/xhtml\"><p><b>Generated Narrative with Details</b></p><p><b>id</b>: A7-Analyzer</p><p><b>meta</b>: </p><p><b>status</b>: final</p><p><b>type</b>: Medication summary document (record artifact) <span style=\"background: LightGoldenRodYellow\">(Details : {SNOMED CT code '721912009' = 'Medication summary document (record artifact)', given as 'Medication summary document (record artifact)'})</span></p><p><b>date</b>: Feb 1, 2020, 9:30:00 AM</p><p><b>author</b>: <a href=\"#backboneelement_Analyzer\">Generated Summary: unknown resource entry</a></p><p><b>title</b>: Medikationsplan</p></div>"
        },
        "status": "final",
        "type": {
          "coding": [
            {
              "system": "http://snomed.info/sct",
              "code": "721912009",
              "display": "Medication summary document (record artifact)"
            }
          ]
        },
        "subject": {
          "reference": "Patient/MonikaWegmueller"
        },
        "date": "2020-02-01T09:30:00+01:00",
        "author": [
          {
            "reference": "Device/Analyzer"
          }
        ],
        "title": "Medikationsplan",
        "section": [
          {
            "entry": [
              {
                "reference": "MedicationStatement/A7-MedStatBrufen-600-Analyzer"
              },
              {
                "reference": "MedicationStatement/A7-MedStatBrufenRetard-800-Analyzer"
              }
            ]
          }
        ]
      }
    },
    {
      "fullUrl": "http://test.fhir.ch/r4/Patient/MonikaWegmueller",
      "resource": {
        "resourceType": "Patient",
        "id": "MonikaWegmueller",
        "meta": {
          "profile": [
            "http://chmed20af.emediplan.ch/fhir/StructureDefinition/chmed20af-analyzer-patient"
          ]
        },
        "text": {
          "status": "generated",
          "div": "<div xmlns=\"http://www.w3.org/1999/xhtml\"><p><b>Generated Narrative with Details</b></p><p><b>id</b>: MonikaWegmueller</p><p><b>meta</b>: </p><p><b>identifier</b>: Medical record number = 11111111</p><p><b>name</b>: Monika Wegm端ller </p><p><b>gender</b>: female</p><p><b>birthDate</b>: 1943-05-15</p><p><b>address</b>: Wiesenstr. 12 Z端rich 8003 CH </p></div>"
        },
        "identifier": [
          {
            "type": {
              "coding": [
                {
                  "system": "http://terminology.hl7.org/CodeSystem/v2-0203",
                  "code": "MR"
                }
              ]
            },
            "system": "urn:oid:2.999",
            "value": "11111111"
          }
        ],
        "name": [
          {
            "family": "Wegm端ller",
            "given": [
              "Monika"
            ]
          }
        ],
        "gender": "female",
        "birthDate": "1943-05-15",
        "address": [
          {
            "line": [
              "Wiesenstr. 12"
            ],
            "city": "Z端rich",
            "postalCode": "8003",
            "country": "CH"
          }
        ]
      }
    },
    {
      "fullUrl": "http://test.fhir.ch/r4/Practitioner/HausarztDupont",
      "resource": {
        "resourceType": "Practitioner",
        "id": "HausarztDupont",
        "meta": {
          "profile": [
            "http://chmed20af.emediplan.ch/fhir/StructureDefinition/chmed20af-analyzer-practitioner"
          ]
        },
        "text": {
          "status": "generated",
          "div": "<div xmlns=\"http://www.w3.org/1999/xhtml\"><p><b>Generated Narrative with Details</b></p><p><b>id</b>: HausarztDupont</p><p><b>meta</b>: </p><p><b>identifier</b>: 7601000234466</p><p><b>name</b>: Hausarzt Dupont </p></div>"
        },
        "identifier": [
          {
            "system": "urn:oid:2.51.1.3",
            "value": "7601000234466"
          }
        ],
        "name": [
          {
            "family": "Dupont",
            "given": [
              "Hausarzt"
            ]
          }
        ]
      }
    },
    {
      "fullUrl": "http://test.fhir.ch/r4/Device/Analyzer",
      "resource": {
        "resourceType": "Device",
        "id": "Analyzer",
        "meta": {
          "profile": [
            "http://hl7.org/fhir/StructureDefinition/Device"
          ]
        },
        "text": {
          "status": "generated",
          "div": "<div xmlns=\"http://www.w3.org/1999/xhtml\"><p><b>Generated Narrative with Details</b></p><p><b>id</b>: Analyzer</p><p><b>meta</b>: </p><h3>DeviceNames</h3><table class=\"grid\"><tr><td>-</td><td><b>Name</b></td><td><b>Type</b></td></tr><tr><td>*</td><td>Analyzer</td><td>user-friendly-name</td></tr></table><h3>Versions</h3><table class=\"grid\"><tr><td>-</td><td><b>Value</b></td></tr><tr><td>*</td><td>V1</td></tr></table></div>"
        },
        "deviceName": [
          {
            "name": "Analyzer",
            "type": "user-friendly-name"
          }
        ],
        "version": [
          {
            "value": "V1"
          }
        ]
      }
    },
    {
      "fullUrl": "http://test.fhir.ch/r4/MedicationStatement/A7-MedStatBrufen-600-Analyzer",
      "resource": {
        "resourceType": "MedicationStatement",
        "id": "A7-MedStatBrufen-600-Analyzer",
        "meta": {
          "profile": [
            "http://chmed20af.emediplan.ch/fhir/StructureDefinition/chmed20af-analyzer-medicationstatement"
          ]
        },
        "text": {
          "status": "generated",
          "div": "<div xmlns=\"http://www.w3.org/1999/xhtml\"><p><b>Generated Narrative with Details</b></p><p><b>id</b>: A7-MedStatBrufen-600-Analyzer</p><p><b>meta</b>: </p><p><b>contained</b>: </p><p><b>status</b>: completed</p><p><b>category</b>: Muskel- und Skelettsystem <span style=\"background: LightGoldenRodYellow\">(Details : {http://www.whocc.no/atc code 'M' = 'M', given as 'Muskel- und Skelettsystem'})</span></p><p><b>medication</b>: unknown resource contained</p><p><b>subject</b>: <a href=\"#backboneelement_MonikaWegmueller\">Generated Summary: unknown resource entry</a></p><p><b>informationSource</b>: <a href=\"#backboneelement_HausarztDupont\">Generated Summary: unknown resource entry</a></p><p><b>derivedFrom</b>: <a href=\"#backboneelement_A7-MedStatBrufen-600\">Generated Summary: unknown resource entry</a></p><p><b>dosage</b>: , </p></div>"
        },
        "contained": [
          {
            "resourceType": "Medication",
            "id": "cont1",
            "code": {
              "coding": [
                {
                  "system": "urn:oid:2.51.1.1",
                  "code": "7680450311951",
                  "display": "Brufen 600 mg Filmtabl"
                }
              ],
              "text": "Brufen 600 mg Filmtabl"
            },
            "form": {
              "coding": [
                {
                  "system": "urn:oid:0.4.0.127.0.16.1.1.2.1",
                  "code": "10221000",
                  "display": "Film-coated tablet"
                }
              ]
            },
            "amount": {
              "numerator": {
                "value": 20
              },
              "denominator": {
                "value": 1
              }
            },
            "ingredient": [
              {
                "itemCodeableConcept": {
                  "coding": [
                    {
                      "system": "http://snomed.info/sct",
                      "code": "387207008",
                      "display": "Ibuprofen (substance)"
                    }
                  ]
                },
                "strength": {
                  "numerator": {
                    "value": 600,
                    "unit": "mg"
                  },
                  "denominator": {
                    "value": 1
                  }
                }
              }
            ]
          }
        ],
        "status": "completed",
        "category": {
          "coding": [
            {
              "system": "http://www.whocc.no/atc",
              "code": "M",
              "display": "Muskel- und Skelettsystem"
            }
          ]
        },
        "medicationReference": {
          "reference": "#cont1"
        },
        "subject": {
          "reference": "Patient/MonikaWegmueller"
        },
        "informationSource": {
          "reference": "Practitioner/HausarztDupont"
        },
        "derivedFrom": [
          {
            "reference": "MedicationStatement/A7-MedStatBrufen-600"
          }
        ],
        "dosage": [
          {
            "text": "1 Tablette morgens"
          },
          {
            "timing": {
              "repeat": {
                "boundsPeriod": {
                  "start": "2020-02-01"
                },
                "when": [
                  "CM"
                ]
              }
            },
            "route": {
              "coding": [
                {
                  "system": "urn:oid:0.4.0.127.0.16.1.1.2.1",
                  "code": "20053000",
                  "display": "Oral use"
                }
              ]
            },
            "doseAndRate": [
              {
                "doseQuantity": {
                  "value": 1,
                  "unit": "Tablette",
                  "system": "http://unitsofmeasure.org",
                  "code": "1"
                }
              }
            ]
          }
        ]
      }
    },
    {
      "fullUrl": "http://test.fhir.ch/r4/MedicationStatement/A7-MedStatBrufenRetard-800-Analyzer",
      "resource": {
        "resourceType": "MedicationStatement",
        "id": "A7-MedStatBrufenRetard-800-Analyzer",
        "meta": {
          "profile": [
            "http://chmed20af.emediplan.ch/fhir/StructureDefinition/chmed20af-analyzer-medicationstatement"
          ]
        },
        "text": {
          "status": "generated",
          "div": "<div xmlns=\"http://www.w3.org/1999/xhtml\"><p><b>Generated Narrative with Details</b></p><p><b>id</b>: A7-MedStatBrufenRetard-800-Analyzer</p><p><b>meta</b>: </p><p><b>contained</b>: </p><p><b>status</b>: completed</p><p><b>category</b>: Muskel- und Skelettsystem <span style=\"background: LightGoldenRodYellow\">(Details : {http://www.whocc.no/atc code 'M' = 'M', given as 'Muskel- und Skelettsystem'})</span></p><p><b>medication</b>: unknown resource contained</p><p><b>subject</b>: <a href=\"#backboneelement_MonikaWegmueller\">Generated Summary: unknown resource entry</a></p><p><b>informationSource</b>: <a href=\"#backboneelement_HausarztDupont\">Generated Summary: unknown resource entry</a></p><p><b>derivedFrom</b>: </p><ul><li><a href=\"#backboneelement_A7-MedStatBrufen-600\">Generated Summary: unknown resource entry</a></li><li><a href=\"#backboneelement_A7-History-ChangeGalenic\">Generated Summary: unknown resource entry</a></li><li><a href=\"#backboneelement_A7-MedStatBrufenRetard-800\">Generated Summary: unknown resource entry</a></li></ul><p><b>dosage</b>: , </p></div>"
        },
        "contained": [
          {
            "resourceType": "Medication",
            "id": "cont1",
            "code": {
              "coding": [
                {
                  "system": "urn:oid:2.51.1.1",
                  "code": "7680500720610",
                  "display": "Brufen retard 800 mg Filmtabl"
                }
              ],
              "text": "Brufen retard 800 mg Filmtabl"
            },
            "form": {
              "coding": [
                {
                  "system": "urn:oid:0.4.0.127.0.16.1.1.2.1",
                  "code": "10221000",
                  "display": "Film-coated tablet"
                }
              ]
            },
            "amount": {
              "numerator": {
                "value": 20
              },
              "denominator": {
                "value": 1
              }
            },
            "ingredient": [
              {
                "itemCodeableConcept": {
                  "coding": [
                    {
                      "system": "http://snomed.info/sct",
                      "code": "387207008",
                      "display": "Ibuprofen (substance)"
                    }
                  ]
                },
                "strength": {
                  "numerator": {
                    "value": 800,
                    "unit": "mg"
                  },
                  "denominator": {
                    "value": 1
                  }
                }
              }
            ]
          }
        ],
        "status": "completed",
        "category": {
          "coding": [
            {
              "system": "http://www.whocc.no/atc",
              "code": "M",
              "display": "Muskel- und Skelettsystem"
            }
          ]
        },
        "medicationReference": {
          "reference": "#cont1"
        },
        "subject": {
          "reference": "Patient/MonikaWegmueller"
        },
        "informationSource": {
          "reference": "Practitioner/HausarztDupont"
        },
        "derivedFrom": [
          {
            "reference": "MedicationStatement/A7-MedStatBrufen-600"
          },
          {
            "reference": "Observation/A7-History-ChangeGalenic"
          },
          {
            "reference": "MedicationStatement/A7-MedStatBrufenRetard-800"
          }
        ],
        "dosage": [
          {
            "text": "1 Tablette morgens"
          },
          {
            "timing": {
              "repeat": {
                "boundsPeriod": {
                  "start": "2020-02-01"
                },
                "when": [
                  "CM"
                ]
              }
            },
            "route": {
              "coding": [
                {
                  "system": "urn:oid:0.4.0.127.0.16.1.1.2.1",
                  "code": "20053000",
                  "display": "Oral use"
                }
              ]
            },
            "doseAndRate": [
              {
                "doseQuantity": {
                  "value": 1,
                  "unit": "Tablette",
                  "system": "http://unitsofmeasure.org",
                  "code": "1"
                }
              }
            ]
          }
        ]
      }
    },
    {
      "fullUrl": "http://test.fhir.ch/r4/MedicationStatement/A7-MedStatBrufen-600",
      "resource": {
        "resourceType": "MedicationStatement",
        "id": "A7-MedStatBrufen-600",
        "meta": {
          "profile": [
            "http://chmed20af.emediplan.ch/fhir/StructureDefinition/chmed20af-analyzer-medicationstatement"
          ]
        },
        "text": {
          "status": "generated",
          "div": "<div xmlns=\"http://www.w3.org/1999/xhtml\"><p><b>Generated Narrative with Details</b></p><p><b>id</b>: A7-MedStatBrufen-600</p><p><b>meta</b>: </p><p><b>contained</b>: </p><p><b>status</b>: completed</p><p><b>category</b>: Muskel- und Skelettsystem <span style=\"background: LightGoldenRodYellow\">(Details : {http://www.whocc.no/atc code 'M' = 'M', given as 'Muskel- und Skelettsystem'})</span></p><p><b>medication</b>: unknown resource contained</p><p><b>subject</b>: <a href=\"#backboneelement_MonikaWegmueller\">Generated Summary: unknown resource entry</a></p><p><b>informationSource</b>: <a href=\"#backboneelement_HausarztDupont\">Generated Summary: unknown resource entry</a></p><p><b>reasonCode</b>: Schmerzen <span style=\"background: LightGoldenRodYellow\">(Details )</span></p><p><b>dosage</b>: , </p></div>"
        },
        "contained": [
          {
            "resourceType": "Medication",
            "id": "cont1",
            "code": {
              "coding": [
                {
                  "system": "urn:oid:2.51.1.1",
                  "code": "7680450311951",
                  "display": "Brufen 600 mg Filmtabl"
                }
              ],
              "text": "Brufen 600 mg Filmtabl"
            },
            "form": {
              "coding": [
                {
                  "system": "urn:oid:0.4.0.127.0.16.1.1.2.1",
                  "code": "10221000",
                  "display": "Film-coated tablet"
                }
              ]
            },
            "amount": {
              "numerator": {
                "value": 20
              },
              "denominator": {
                "value": 1
              }
            },
            "ingredient": [
              {
                "itemCodeableConcept": {
                  "coding": [
                    {
                      "system": "http://snomed.info/sct",
                      "code": "387207008",
                      "display": "Ibuprofen (substance)"
                    }
                  ]
                },
                "strength": {
                  "numerator": {
                    "value": 600,
                    "unit": "mg"
                  },
                  "denominator": {
                    "value": 1
                  }
                }
              }
            ]
          }
        ],
        "extension": [
          {
            "url": "http://chmed20af.emediplan.ch/fhir/StructureDefinition/chmed20af-infoinputdocument",
            "extension": [
              {
                "url": "http://chmed20af.emediplan.ch/fhir/StructureDefinition/chmed20af-inputdocumentsource",
                "valueString": "Cara"
              },
              {
                "url": "http://chmed20af.emediplan.ch/fhir/StructureDefinition/chmed20af-inputdocumenttype",
                "valueCodeableConcept": {
                  "coding": [
                    {
                      "system": "http://loinc.org",
                      "code": "56445-0",
                      "display": "Medication summary"
                    }
                  ]
                }
              },
              {
                "url": "http://chmed20af.emediplan.ch/fhir/StructureDefinition/chmed20af-inputdocumentdate",
                "valueDateTime": "2020-02-01T09:00:00+01:00"
              }
            ]
          }
        ],
        "status": "completed",
        "category": {
          "coding": [
            {
              "system": "http://www.whocc.no/atc",
              "code": "M",
              "display": "Muskel- und Skelettsystem"
            }
          ]
        },
        "medicationReference": {
          "reference": "#cont1"
        },
        "subject": {
          "reference": "Patient/MonikaWegmueller"
        },
        "informationSource": {
          "reference": "Practitioner/HausarztDupont"
        },
        "reasonCode": [
          {
            "text": "Schmerzen"
          }
        ],
        "dosage": [
          {
            "text": "1 Tablette morgens"
          },
          {
            "timing": {
              "repeat": {
                "boundsPeriod": {
                  "start": "2020-02-01"
                },
                "when": [
                  "CM"
                ]
              }
            },
            "route": {
              "coding": [
                {
                  "system": "urn:oid:0.4.0.127.0.16.1.1.2.1",
                  "code": "20053000",
                  "display": "Oral use"
                }
              ]
            },
            "doseAndRate": [
              {
                "doseQuantity": {
                  "value": 1,
                  "unit": "Tablette",
                  "system": "http://unitsofmeasure.org",
                  "code": "1"
                }
              }
            ]
          }
        ]
      }
    },
    {
      "fullUrl": "http://test.fhir.ch/r4/Observation/A7-History-ChangeGalenic",
      "resource": {
        "resourceType": "Observation",
        "id": "A7-History-ChangeGalenic",
        "meta": {
          "profile": [
            "http://chmed20af.emediplan.ch/fhir/StructureDefinition/chmed20af-analyzer-observationhistory"
          ]
        },
        "text": {
          "status": "generated",
          "div": "<div xmlns=\"http://www.w3.org/1999/xhtml\"><p><b>Generated Narrative with Details</b></p><p><b>id</b>: A7-History-ChangeGalenic</p><p><b>meta</b>: </p><p><b>status</b>: final</p><p><b>code</b>: CHANGE <span style=\"background: LightGoldenRodYellow\">(Details : {urn:oid:1.3.6.1.4.1.19376.1.9.2.1 code 'CHANGE' = 'CHANGE)</span></p><p><b>value</b>: changeGalenic <span style=\"background: LightGoldenRodYellow\">(Details : {http://chmed20af.emediplan.ch/fhir/CodeSystem/chmed20af-codesystem-history-changes code 'changeGalenic' = 'changeGalenic)</span></p></div>"
        },
        "status": "final",
        "code": {
          "coding": [
            {
              "system": "urn:oid:1.3.6.1.4.1.19376.1.9.2.1",
              "code": "CHANGE"
            }
          ]
        },
        "valueCodeableConcept": {
          "coding": [
            {
              "system": "http://chmed20af.emediplan.ch/fhir/CodeSystem/chmed20af-codesystem-history-changes",
              "code": "changeGalenic"
            }
          ]
        }
      }
    },
    {
      "fullUrl": "http://test.fhir.ch/r4/MedicationStatement/A7-MedStatBrufenRetard-800",
      "resource": {
        "resourceType": "MedicationStatement",
        "id": "A7-MedStatBrufenRetard-800",
        "meta": {
          "profile": [
            "http://chmed20af.emediplan.ch/fhir/StructureDefinition/chmed20af-analyzer-medicationstatement"
          ]
        },
        "text": {
          "status": "generated",
          "div": "<div xmlns=\"http://www.w3.org/1999/xhtml\"><p><b>Generated Narrative with Details</b></p><p><b>id</b>: A7-MedStatBrufenRetard-800</p><p><b>meta</b>: </p><p><b>contained</b>: </p><p><b>status</b>: completed</p><p><b>category</b>: Muskel- und Skelettsystem <span style=\"background: LightGoldenRodYellow\">(Details : {http://www.whocc.no/atc code 'M' = 'M', given as 'Muskel- und Skelettsystem'})</span></p><p><b>medication</b>: unknown resource contained</p><p><b>subject</b>: <a href=\"#backboneelement_MonikaWegmueller\">Generated Summary: unknown resource entry</a></p><p><b>informationSource</b>: <a href=\"#backboneelement_HausarztDupont\">Generated Summary: unknown resource entry</a></p><p><b>reasonCode</b>: Schmerzen <span style=\"background: LightGoldenRodYellow\">(Details )</span></p><p><b>dosage</b>: , </p></div>"
        },
        "contained": [
          {
            "resourceType": "Medication",
            "id": "cont1",
            "code": {
              "coding": [
                {
                  "system": "urn:oid:2.51.1.1",
                  "code": "7680500720610",
                  "display": "Brufen retard 800 mg Filmtabl"
                }
              ],
              "text": "Brufen retard 800 mg Filmtabl"
            },
            "form": {
              "coding": [
                {
                  "system": "urn:oid:0.4.0.127.0.16.1.1.2.1",
                  "code": "10221000",
                  "display": "Film-coated tablet"
                }
              ]
            },
            "amount": {
              "numerator": {
                "value": 20
              },
              "denominator": {
                "value": 1
              }
            },
            "ingredient": [
              {
                "itemCodeableConcept": {
                  "coding": [
                    {
                      "system": "http://snomed.info/sct",
                      "code": "387207008",
                      "display": "Ibuprofen (substance)"
                    }
                  ]
                },
                "strength": {
                  "numerator": {
                    "value": 800,
                    "unit": "mg"
                  },
                  "denominator": {
                    "value": 1
                  }
                }
              }
            ]
          }
        ],
        "extension": [
          {
            "url": "http://chmed20af.emediplan.ch/fhir/StructureDefinition/chmed20af-infoinputdocument",
            "extension": [
              {
                "url": "http://chmed20af.emediplan.ch/fhir/StructureDefinition/chmed20af-inputdocumentsource",
                "valueString": "Cara"
              },
              {
                "url": "http://chmed20af.emediplan.ch/fhir/StructureDefinition/chmed20af-inputdocumenttype",
                "valueCodeableConcept": {
                  "coding": [
                    {
                      "system": "http://loinc.org",
                      "code": "56445-0",
                      "display": "Medication summary"
                    }
                  ]
                }
              },
              {
                "url": "http://chmed20af.emediplan.ch/fhir/StructureDefinition/chmed20af-inputdocumentdate",
                "valueDateTime": "2020-02-01T09:15:00+01:00"
              }
            ]
          }
        ],
        "status": "completed",
        "category": {
          "coding": [
            {
              "system": "http://www.whocc.no/atc",
              "code": "M",
              "display": "Muskel- und Skelettsystem"
            }
          ]
        },
        "medicationReference": {
          "reference": "#cont1"
        },
        "subject": {
          "reference": "Patient/MonikaWegmueller"
        },
        "informationSource": {
          "reference": "Practitioner/HausarztDupont"
        },
        "reasonCode": [
          {
            "text": "Schmerzen"
          }
        ],
        "dosage": [
          {
            "text": "1 Tablette morgens"
          },
          {
            "timing": {
              "repeat": {
                "boundsPeriod": {
                  "start": "2020-02-01"
                },
                "when": [
                  "CM"
                ]
              }
            },
            "route": {
              "coding": [
                {
                  "system": "urn:oid:0.4.0.127.0.16.1.1.2.1",
                  "code": "20053000",
                  "display": "Oral use"
                }
              ]
            },
            "doseAndRate": [
              {
                "doseQuantity": {
                  "value": 1,
                  "unit": "Tablette",
                  "system": "http://unitsofmeasure.org",
                  "code": "1"
                }
              }
            ]
          }
        ]
      }
    }
  ]
}