{
  "resourceType": "Bundle",
  "id": "BeloczokMTP-ConsolidatedMedicationCard",
  "meta": {
    "profile": [
      "http://chmed20af.emediplan.ch/fhir/StructureDefinition/chmed20af-analyzer-bundle"
    ]
  },
  "identifier": {
    "system": "http://emediplan.ch/chmed20af/id",
    "value": "26d3dff7-ab05-4737-a49c-5eccd3353339"
  },
  "type": "document",
  "timestamp": "2020-04-03T12:00:00.000+00:00",
  "entry": [
    {
      "fullUrl": "http://test.fhir.ch/r4/Composition/2-3-Analyzer",
      "resource": {
        "resourceType": "Composition",
        "id": "2-3-Analyzer",
        "meta": {
          "profile": [
            "http://chmed20af.emediplan.ch/fhir/StructureDefinition/chmed20af-analyzer-composition"
          ]
        },
        "text": {
          "status": "generated",
          "div": "<div xmlns=\"http://www.w3.org/1999/xhtml\"><p><b>Generated Narrative with Details</b></p><p><b>id</b>: 2-3-Analyzer</p><p><b>meta</b>: </p><p><b>status</b>: final</p><p><b>type</b>: Medication summary document (record artifact) <span style=\"background: LightGoldenRodYellow\">(Details : {SNOMED CT code '721912009' = 'Medication summary document (record artifact)', given as 'Medication summary document (record artifact)'})</span></p><p><b>date</b>: Apr 3, 2020, 2:00:00 PM</p><p><b>author</b>: <a href=\"#backboneelement_Analyzer\">Generated Summary: unknown resource entry</a></p><p><b>title</b>: Medikationsplan</p></div>"
        },
        "status": "final",
        "type": {
          "coding": [
            {
              "system": "http://snomed.info/sct",
              "code": "721912009",
              "display": "Medication summary document (record artifact)"
            }
          ]
        },
        "subject": {
          "reference": "Patient/MonikaWegmueller"
        },
        "date": "2020-04-03T12:00:00.000+00:00",
        "author": [
          {
            "reference": "Device/Analyzer"
          }
        ],
        "title": "Medikationsplan",
        "section": [
          {
            "entry": [
              {
                "reference": "MedicationStatement/2-3-MedStatBeloczok-Analyzer"
              }
            ]
          }
        ]
      }
    },
    {
      "fullUrl": "http://test.fhir.ch/r4/Patient/MonikaWegmueller",
      "resource": {
        "resourceType": "Patient",
        "id": "MonikaWegmueller",
        "meta": {
          "profile": [
            "http://chmed20af.emediplan.ch/fhir/StructureDefinition/chmed20af-analyzer-patient"
          ]
        },
        "text": {
          "status": "generated",
          "div": "<div xmlns=\"http://www.w3.org/1999/xhtml\"><p><b>Generated Narrative with Details</b></p><p><b>id</b>: MonikaWegmueller</p><p><b>meta</b>: </p><p><b>identifier</b>: Medical record number = 11111111</p><p><b>name</b>: Monika Wegmüller </p><p><b>gender</b>: female</p><p><b>birthDate</b>: 1943-05-15</p><p><b>address</b>: Wiesenstr. 12 Zürich 8003 CH </p></div>"
        },
        "identifier": [
          {
            "type": {
              "coding": [
                {
                  "system": "http://terminology.hl7.org/CodeSystem/v2-0203",
                  "code": "MR"
                }
              ]
            },
            "system": "urn:oid:2.999",
            "value": "11111111"
          }
        ],
        "name": [
          {
            "family": "Wegmüller",
            "given": [
              "Monika"
            ]
          }
        ],
        "gender": "female",
        "birthDate": "1943-05-15",
        "address": [
          {
            "line": [
              "Wiesenstr. 12"
            ],
            "city": "Zürich",
            "postalCode": "8003",
            "country": "CH"
          }
        ]
      }
    },
    {
      "fullUrl": "http://test.fhir.ch/r4/Practitioner/FamilienHausarzt",
      "resource": {
        "resourceType": "Practitioner",
        "id": "FamilienHausarzt",
        "meta": {
          "profile": [
            "http://chmed20af.emediplan.ch/fhir/StructureDefinition/chmed20af-analyzer-practitioner"
          ]
        },
        "text": {
          "status": "generated",
          "div": "<div xmlns=\"http://www.w3.org/1999/xhtml\"><p><b>Generated Narrative with Details</b></p><p><b>id</b>: FamilienHausarzt</p><p><b>meta</b>: </p><p><b>identifier</b>: 7601000234438</p><p><b>name</b>: Familien Hausarzt </p></div>"
        },
        "identifier": [
          {
            "system": "urn:oid:2.51.1.3",
            "value": "7601000234438"
          }
        ],
        "name": [
          {
            "family": "Hausarzt",
            "given": [
              "Familien"
            ]
          }
        ]
      }
    },
    {
      "fullUrl": "http://test.fhir.ch/r4/Device/Analyzer",
      "resource": {
        "resourceType": "Device",
        "id": "Analyzer",
        "meta": {
          "profile": [
            "http://hl7.org/fhir/StructureDefinition/Device"
          ]
        },
        "text": {
          "status": "generated",
          "div": "<div xmlns=\"http://www.w3.org/1999/xhtml\"><p><b>Generated Narrative with Details</b></p><p><b>id</b>: Analyzer</p><p><b>meta</b>: </p><h3>DeviceNames</h3><table class=\"grid\"><tr><td>-</td><td><b>Name</b></td><td><b>Type</b></td></tr><tr><td>*</td><td>Analyzer</td><td>user-friendly-name</td></tr></table><h3>Versions</h3><table class=\"grid\"><tr><td>-</td><td><b>Value</b></td></tr><tr><td>*</td><td>V1</td></tr></table></div>"
        },
        "deviceName": [
          {
            "name": "Analyzer",
            "type": "user-friendly-name"
          }
        ],
        "version": [
          {
            "value": "V1"
          }
        ]
      }
    },
    {
      "fullUrl": "http://test.fhir.ch/r4/MedicationStatement/2-3-MedStatBeloczok-Analyzer",
      "resource": {
        "resourceType": "MedicationStatement",
        "id": "2-3-MedStatBeloczok-Analyzer",
        "meta": {
          "profile": [
            "http://chmed20af.emediplan.ch/fhir/StructureDefinition/chmed20af-analyzer-medicationstatement"
          ]
        },
        "text": {
          "status": "generated",
          "div": "<div xmlns=\"http://www.w3.org/1999/xhtml\"><p><b>Generated Narrative with Details</b></p><p><b>id</b>: 2-3-MedStatBeloczok-Analyzer</p><p><b>meta</b>: </p><p><b>contained</b>: </p><p><b>status</b>: completed</p><p><b>category</b>: Kardiovaskuläres System <span style=\"background: LightGoldenRodYellow\">(Details : {http://www.whocc.no/atc code 'C' = 'C', given as 'Kardiovaskuläres System'})</span></p><p><b>medication</b>: unknown resource contained</p><p><b>subject</b>: <a href=\"#backboneelement_MonikaWegmueller\">Generated Summary: unknown resource entry</a></p><p><b>informationSource</b>: <a href=\"#backboneelement_FamilienHausarzt\">Generated Summary: unknown resource entry</a></p><p><b>derivedFrom</b>: <a href=\"#backboneelement_2-3-MedStatBeloczok\">Generated Summary: unknown resource entry</a></p><p><b>dosage</b>: , , </p></div>"
        },
        "contained": [
          {
            "resourceType": "Medication",
            "id": "med",
            "code": {
              "coding": [
                {
                  "system": "urn:oid:2.51.1.1",
                  "code": "7680521101306",
                  "display": "BELOC ZOK Ret Tabl 50 mg 30 Stk"
                }
              ],
              "text": "BELOC ZOK Ret Tabl 50 mg"
            },
            "form": {
              "coding": [
                {
                  "system": "urn:oid:0.4.0.127.0.16.1.1.2.1",
                  "code": "10219000",
                  "display": "Tablet"
                }
              ]
            },
            "amount": {
              "numerator": {
                "value": 30
              },
              "denominator": {
                "value": 1
              }
            },
            "ingredient": [
              {
                "itemCodeableConcept": {
                  "coding": [
                    {
                      "system": "http://snomed.info/sct",
                      "code": "372826007",
                      "display": "Metoprolol (substance)"
                    }
                  ],
                  "text": "Metoprolol"
                },
                "strength": {
                  "numerator": {
                    "value": 50,
                    "unit": "mg"
                  },
                  "denominator": {
                    "value": 1
                  }
                }
              }
            ]
          }
        ],
        "status": "completed",
        "category": {
          "coding": [
            {
              "system": "http://www.whocc.no/atc",
              "code": "C",
              "display": "Kardiovaskuläres System"
            }
          ]
        },
        "medicationReference": {
          "reference": "#med"
        },
        "subject": {
          "reference": "Patient/MonikaWegmueller"
        },
        "informationSource": {
          "reference": "Practitioner/FamilienHausarzt"
        },
        "derivedFrom": [
          {
            "reference": "MedicationStatement/2-3-MedStatBeloczok"
          }
        ],
        "dosage": [
          {
            "text": "Morgens 1 und abends 1/2 Tablette nehmen"
          },
          {
            "sequence": 1,
            "timing": {
              "repeat": {
                "boundsPeriod": {
                  "start": "2012-02-04"
                },
                "when": [
                  "ACM"
                ]
              }
            },
            "route": {
              "coding": [
                {
                  "system": "urn:oid:0.4.0.127.0.16.1.1.2.1",
                  "code": "20053000",
                  "display": "Oral use"
                }
              ]
            },
            "doseAndRate": [
              {
                "doseQuantity": {
                  "value": 1
                }
              }
            ]
          },
          {
            "sequence": 2,
            "timing": {
              "repeat": {
                "boundsPeriod": {
                  "start": "2012-02-04"
                },
                "when": [
                  "ACV"
                ]
              }
            },
            "route": {
              "coding": [
                {
                  "system": "urn:oid:0.4.0.127.0.16.1.1.2.1",
                  "code": "20053000",
                  "display": "Oral use"
                }
              ]
            },
            "doseAndRate": [
              {
                "doseQuantity": {
                  "value": 0.5
                }
              }
            ]
          }
        ]
      }
    },
    {
      "fullUrl": "http://test.fhir.ch/r4/MedicationStatement/2-3-MedStatBeloczok",
      "resource": {
        "resourceType": "MedicationStatement",
        "id": "2-3-MedStatBeloczok",
        "meta": {
          "profile": [
            "http://chmed20af.emediplan.ch/fhir/StructureDefinition/chmed20af-analyzer-medicationstatement"
          ]
        },
        "text": {
          "status": "generated",
          "div": "<div xmlns=\"http://www.w3.org/1999/xhtml\"><p><b>Generated Narrative with Details</b></p><p><b>id</b>: 2-3-MedStatBeloczok</p><p><b>meta</b>: </p><p><b>contained</b>: </p><p><b>status</b>: completed</p><p><b>category</b>: Kardiovaskuläres System <span style=\"background: LightGoldenRodYellow\">(Details : {http://www.whocc.no/atc code 'C' = 'C', given as 'Kardiovaskuläres System'})</span></p><p><b>medication</b>: unknown resource contained</p><p><b>subject</b>: <a href=\"#backboneelement_MonikaWegmueller\">Generated Summary: unknown resource entry</a></p><p><b>informationSource</b>: <a href=\"#backboneelement_FamilienHausarzt\">Generated Summary: unknown resource entry</a></p><p><b>reasonCode</b>: Bluthochdruck <span style=\"background: LightGoldenRodYellow\">(Details )</span></p><p><b>note</b>: -</p><p><b>dosage</b>: , , </p></div>"
        },
        "contained": [
          {
            "resourceType": "Medication",
            "id": "med",
            "code": {
              "coding": [
                {
                  "system": "urn:oid:2.51.1.1",
                  "code": "7680521101306",
                  "display": "BELOC ZOK Ret Tabl 50 mg 30 Stk"
                }
              ],
              "text": "BELOC ZOK Ret Tabl 50 mg"
            },
            "form": {
              "coding": [
                {
                  "system": "urn:oid:0.4.0.127.0.16.1.1.2.1",
                  "code": "10219000",
                  "display": "Tablet"
                }
              ]
            },
            "amount": {
              "numerator": {
                "value": 30
              },
              "denominator": {
                "value": 1
              }
            },
            "ingredient": [
              {
                "itemCodeableConcept": {
                  "coding": [
                    {
                      "system": "http://snomed.info/sct",
                      "code": "372826007",
                      "display": "Metoprolol (substance)"
                    }
                  ],
                  "text": "Metoprolol"
                },
                "strength": {
                  "numerator": {
                    "value": 50,
                    "unit": "mg"
                  },
                  "denominator": {
                    "value": 1
                  }
                }
              }
            ]
          }
        ],
        "extension": [
          {
            "url": "http://chmed20af.emediplan.ch/fhir/StructureDefinition/chmed20af-infoinputdocument",
            "extension": [
              {
                "url": "http://chmed20af.emediplan.ch/fhir/StructureDefinition/chmed20af-inputdocumentsource",
                "valueString": "EPD"
              },
              {
                "url": "http://chmed20af.emediplan.ch/fhir/StructureDefinition/chmed20af-inputdocumenttype",
                "valueCodeableConcept": {
                  "coding": [
                    {
                      "system": "http://loinc.org",
                      "code": "77603-9",
                      "display": "Medication treatment plan.extended"
                    }
                  ]
                }
              },
              {
                "url": "http://chmed20af.emediplan.ch/fhir/StructureDefinition/chmed20af-inputdocumentdate",
                "valueDateTime": "2012-02-04T14:00:00+01:00"
              }
            ]
          }
        ],
        "status": "completed",
        "category": {
          "coding": [
            {
              "system": "http://www.whocc.no/atc",
              "code": "C",
              "display": "Kardiovaskuläres System"
            }
          ]
        },
        "medicationReference": {
          "reference": "#med"
        },
        "subject": {
          "reference": "Patient/MonikaWegmueller"
        },
        "informationSource": {
          "reference": "Practitioner/FamilienHausarzt"
        },
        "reasonCode": [
          {
            "text": "Bluthochdruck"
          }
        ],
        "note": [
          {
            "text": "-"
          }
        ],
        "dosage": [
          {
            "text": "Morgens 1 und abends 1/2 Tablette nehmen"
          },
          {
            "extension": [
              {
                "url": "http://fhir.ch/ig/ch-emed/StructureDefinition/ch-emed-ext-dosagetype",
                "valueIdentifier": {
                  "value": "1.3.6.1.4.1.19376.1.5.3.1.4.9"
                }
              }
            ],
            "sequence": 1,
            "timing": {
              "repeat": {
                "boundsPeriod": {
                  "start": "2012-02-04"
                },
                "when": [
                  "ACM"
                ]
              }
            },
            "route": {
              "coding": [
                {
                  "system": "urn:oid:0.4.0.127.0.16.1.1.2.1",
                  "code": "20053000",
                  "display": "Oral use"
                }
              ]
            },
            "doseAndRate": [
              {
                "doseQuantity": {
                  "value": 1
                }
              }
            ]
          },
          {
            "extension": [
              {
                "url": "http://fhir.ch/ig/ch-emed/StructureDefinition/ch-emed-ext-dosagetype",
                "valueIdentifier": {
                  "value": "1.3.6.1.4.1.19376.1.5.3.1.4.9"
                }
              }
            ],
            "sequence": 2,
            "timing": {
              "repeat": {
                "boundsPeriod": {
                  "start": "2012-02-04"
                },
                "when": [
                  "ACV"
                ]
              }
            },
            "route": {
              "coding": [
                {
                  "system": "urn:oid:0.4.0.127.0.16.1.1.2.1",
                  "code": "20053000",
                  "display": "Oral use"
                }
              ]
            },
            "doseAndRate": [
              {
                "doseQuantity": {
                  "value": 0.5
                }
              }
            ]
          }
        ]
      }
    }
  ]
}