{
  "resourceType": "Bundle",
  "id": "NorvascCard-ConsolidatedMedicationCard",
  "meta": {
    "profile": [
      "http://chmed20af.emediplan.ch/fhir/StructureDefinition/chmed20af-analyzer-bundle"
    ]
  },
  "identifier": {
    "system": "http://emediplan.ch/chmed20af/id",
    "value": "26d3dff7-ab05-4737-a49c-5eccd3357779"
  },
  "type": "document",
  "timestamp": "2020-04-03T12:00:00.000+00:00",
  "entry": [
    {
      "fullUrl": "http://test.fhir.ch/r4/Composition/2-7-Analyzer",
      "resource": {
        "resourceType": "Composition",
        "id": "2-7-Analyzer",
        "meta": {
          "profile": [
            "http://chmed20af.emediplan.ch/fhir/StructureDefinition/chmed20af-analyzer-composition"
          ]
        },
        "text": {
          "status": "generated",
          "div": "<div xmlns=\"http://www.w3.org/1999/xhtml\"><p><b>Generated Narrative with Details</b></p><p><b>id</b>: 2-7-Analyzer</p><p><b>meta</b>: </p><p><b>status</b>: final</p><p><b>type</b>: Medication summary document (record artifact) <span style=\"background: LightGoldenRodYellow\">(Details : {SNOMED CT code '721912009' = 'Medication summary document (record artifact)', given as 'Medication summary document (record artifact)'})</span></p><p><b>date</b>: Apr 3, 2020, 2:00:00 PM</p><p><b>author</b>: <a href=\"#backboneelement_Analyzer\">Generated Summary: unknown resource entry</a></p><p><b>title</b>: Medikationsplan</p></div>"
        },
        "status": "final",
        "type": {
          "coding": [
            {
              "system": "http://snomed.info/sct",
              "code": "721912009",
              "display": "Medication summary document (record artifact)"
            }
          ]
        },
        "subject": {
          "reference": "Patient/MonikaWegmueller"
        },
        "date": "2020-04-03T12:00:00.000+00:00",
        "author": [
          {
            "reference": "Device/Analyzer"
          }
        ],
        "title": "Medikationsplan",
        "section": [
          {
            "entry": [
              {
                "reference": "MedicationStatement/2-7-MedStatNorvasc-Analyzer"
              }
            ]
          }
        ]
      }
    },
    {
      "fullUrl": "http://test.fhir.ch/r4/Patient/MonikaWegmueller",
      "resource": {
        "resourceType": "Patient",
        "id": "MonikaWegmueller",
        "meta": {
          "profile": [
            "http://chmed20af.emediplan.ch/fhir/StructureDefinition/chmed20af-analyzer-patient"
          ]
        },
        "text": {
          "status": "generated",
          "div": "<div xmlns=\"http://www.w3.org/1999/xhtml\"><p><b>Generated Narrative with Details</b></p><p><b>id</b>: MonikaWegmueller</p><p><b>meta</b>: </p><p><b>identifier</b>: Medical record number = 11111111</p><p><b>name</b>: Monika Wegmüller </p><p><b>gender</b>: female</p><p><b>birthDate</b>: 1943-05-15</p><p><b>address</b>: Wiesenstr. 12 Zürich 8003 CH </p></div>"
        },
        "identifier": [
          {
            "type": {
              "coding": [
                {
                  "system": "http://terminology.hl7.org/CodeSystem/v2-0203",
                  "code": "MR"
                }
              ]
            },
            "system": "urn:oid:2.999",
            "value": "11111111"
          }
        ],
        "name": [
          {
            "family": "Wegmüller",
            "given": [
              "Monika"
            ]
          }
        ],
        "gender": "female",
        "birthDate": "1943-05-15",
        "address": [
          {
            "line": [
              "Wiesenstr. 12"
            ],
            "city": "Zürich",
            "postalCode": "8003",
            "country": "CH"
          }
        ]
      }
    },
    {
      "fullUrl": "http://test.fhir.ch/r4/Practitioner/FamilienHausarzt",
      "resource": {
        "resourceType": "Practitioner",
        "id": "FamilienHausarzt",
        "meta": {
          "profile": [
            "http://chmed20af.emediplan.ch/fhir/StructureDefinition/chmed20af-analyzer-practitioner"
          ]
        },
        "text": {
          "status": "generated",
          "div": "<div xmlns=\"http://www.w3.org/1999/xhtml\"><p><b>Generated Narrative with Details</b></p><p><b>id</b>: FamilienHausarzt</p><p><b>meta</b>: </p><p><b>identifier</b>: 7601000234438</p><p><b>name</b>: Familien Hausarzt </p></div>"
        },
        "identifier": [
          {
            "system": "urn:oid:2.51.1.3",
            "value": "7601000234438"
          }
        ],
        "name": [
          {
            "family": "Hausarzt",
            "given": [
              "Familien"
            ]
          }
        ]
      }
    },
    {
      "fullUrl": "http://test.fhir.ch/r4/Device/Analyzer",
      "resource": {
        "resourceType": "Device",
        "id": "Analyzer",
        "meta": {
          "profile": [
            "http://hl7.org/fhir/StructureDefinition/Device"
          ]
        },
        "text": {
          "status": "generated",
          "div": "<div xmlns=\"http://www.w3.org/1999/xhtml\"><p><b>Generated Narrative with Details</b></p><p><b>id</b>: Analyzer</p><p><b>meta</b>: </p><h3>DeviceNames</h3><table class=\"grid\"><tr><td>-</td><td><b>Name</b></td><td><b>Type</b></td></tr><tr><td>*</td><td>Analyzer</td><td>user-friendly-name</td></tr></table><h3>Versions</h3><table class=\"grid\"><tr><td>-</td><td><b>Value</b></td></tr><tr><td>*</td><td>V1</td></tr></table></div>"
        },
        "deviceName": [
          {
            "name": "Analyzer",
            "type": "user-friendly-name"
          }
        ],
        "version": [
          {
            "value": "V1"
          }
        ]
      }
    },
    {
      "fullUrl": "http://test.fhir.ch/r4/MedicationStatement/2-7-MedStatNorvasc-Analyzer",
      "resource": {
        "resourceType": "MedicationStatement",
        "id": "2-7-MedStatNorvasc-Analyzer",
        "meta": {
          "profile": [
            "http://chmed20af.emediplan.ch/fhir/StructureDefinition/chmed20af-analyzer-medicationstatement"
          ]
        },
        "text": {
          "status": "generated",
          "div": "<div xmlns=\"http://www.w3.org/1999/xhtml\"><p><b>Generated Narrative with Details</b></p><p><b>id</b>: 2-7-MedStatNorvasc-Analyzer</p><p><b>meta</b>: </p><p><b>contained</b>: </p><p><b>status</b>: completed</p><p><b>category</b>: Kardiovaskuläres System <span style=\"background: LightGoldenRodYellow\">(Details : {http://www.whocc.no/atc code 'C' = 'C', given as 'Kardiovaskuläres System'})</span></p><p><b>medication</b>: unknown resource contained</p><p><b>subject</b>: <a href=\"#backboneelement_MonikaWegmueller\">Generated Summary: unknown resource entry</a></p><p><b>informationSource</b>: <a href=\"#backboneelement_FamilienHausarzt\">Generated Summary: unknown resource entry</a></p><p><b>derivedFrom</b>: </p><ul><li><a href=\"#backboneelement_2-5-MedStatNorvasc-Analyzer\">Generated Summary: unknown resource entry</a></li><li><a href=\"#backboneelement_2-6-History\">Generated Summary: unknown resource entry</a></li><li><a href=\"#backboneelement_2-6-MedReqNorvasc-Analyzer\">Generated Summary: unknown resource entry</a></li><li><a href=\"#backboneelement_2-7-Norvasc-History\">Generated Summary: unknown resource entry</a></li><li><a href=\"#backboneelement_2-7-MedStatNorvascFromCard-Analyzer\">Generated Summary: unknown resource entry</a></li></ul><p><b>dosage</b>: , </p></div>"
        },
        "contained": [
          {
            "resourceType": "Medication",
            "id": "med",
            "code": {
              "coding": [
                {
                  "system": "urn:oid:2.51.1.1",
                  "code": "7680500440334",
                  "display": "NORVASC Tabl 10 mg"
                }
              ],
              "text": "NORVASC Tabl 10 mg"
            },
            "form": {
              "coding": [
                {
                  "system": "urn:oid:0.4.0.127.0.16.1.1.2.1",
                  "code": "10219000",
                  "display": "Tablet"
                }
              ]
            },
            "amount": {
              "numerator": {
                "value": 30
              },
              "denominator": {
                "value": 1
              }
            },
            "ingredient": [
              {
                "itemCodeableConcept": {
                  "coding": [
                    {
                      "system": "http://snomed.info/sct",
                      "code": "386864001",
                      "display": "Amlodipine (substance)"
                    }
                  ],
                  "text": "Amlodipine"
                },
                "strength": {
                  "numerator": {
                    "value": 10,
                    "unit": "mg"
                  },
                  "denominator": {
                    "value": 1
                  }
                }
              }
            ]
          }
        ],
        "status": "completed",
        "category": {
          "coding": [
            {
              "system": "http://www.whocc.no/atc",
              "code": "C",
              "display": "Kardiovaskuläres System"
            }
          ]
        },
        "medicationReference": {
          "reference": "#med"
        },
        "subject": {
          "reference": "Patient/MonikaWegmueller"
        },
        "informationSource": {
          "reference": "Practitioner/FamilienHausarzt"
        },
        "derivedFrom": [
          {
            "reference": "MedicationStatement/2-5-MedStatNorvasc-Analyzer"
          },
          {
            "reference": "Observation/2-6-History"
          },
          {
            "reference": "MedicationRequest/2-6-MedReqNorvasc-Analyzer"
          },
          {
            "reference": "Observation/2-7-Norvasc-History"
          },
          {
            "reference": "MedicationStatement/2-7-MedStatNorvascFromCard-Analyzer"
          }
        ],
        "dosage": [
          {
            "timing": {
              "repeat": {
                "boundsPeriod": {
                  "start": "2012-02-04"
                },
                "when": [
                  "ACM",
                  "ACV"
                ]
              }
            },
            "route": {
              "coding": [
                {
                  "system": "urn:oid:0.4.0.127.0.16.1.1.2.1",
                  "code": "20053000",
                  "display": "Oral use"
                }
              ]
            }
          },
          {
            "text": "Morgens und abends je 1 Tablette nehmen"
          }
        ]
      }
    },
    {
      "fullUrl": "http://test.fhir.ch/r4/MedicationStatement/2-5-MedStatNorvasc-Analyzer",
      "resource": {
        "resourceType": "MedicationStatement",
        "id": "2-5-MedStatNorvasc-Analyzer",
        "meta": {
          "profile": [
            "http://chmed20af.emediplan.ch/fhir/StructureDefinition/chmed20af-analyzer-medicationstatement"
          ]
        },
        "text": {
          "status": "generated",
          "div": "<div xmlns=\"http://www.w3.org/1999/xhtml\"><p><b>Generated Narrative with Details</b></p><p><b>id</b>: 2-5-MedStatNorvasc-Analyzer</p><p><b>meta</b>: </p><p><b>contained</b>: </p><p><b>status</b>: completed</p><p><b>category</b>: Kardiovaskuläres System <span style=\"background: LightGoldenRodYellow\">(Details : {http://www.whocc.no/atc code 'C' = 'C', given as 'Kardiovaskuläres System'})</span></p><p><b>medication</b>: unknown resource contained</p><p><b>subject</b>: <a href=\"#backboneelement_MonikaWegmueller\">Generated Summary: unknown resource entry</a></p><p><b>informationSource</b>: <a href=\"#backboneelement_FamilienHausarzt\">Generated Summary: unknown resource entry</a></p><p><b>reasonCode</b>: Bluthochdruck <span style=\"background: LightGoldenRodYellow\">(Details )</span></p><p><b>note</b>: -</p><p><b>dosage</b>: , </p></div>"
        },
        "contained": [
          {
            "resourceType": "Medication",
            "id": "med",
            "code": {
              "coding": [
                {
                  "system": "urn:oid:2.51.1.1",
                  "code": "7680500440334",
                  "display": "NORVASC Tabl 10 mg"
                }
              ],
              "text": "NORVASC Tabl 10 mg"
            },
            "form": {
              "coding": [
                {
                  "system": "urn:oid:0.4.0.127.0.16.1.1.2.1",
                  "code": "10219000",
                  "display": "Tablet"
                }
              ]
            },
            "amount": {
              "numerator": {
                "value": 30
              },
              "denominator": {
                "value": 1
              }
            },
            "ingredient": [
              {
                "itemCodeableConcept": {
                  "coding": [
                    {
                      "system": "http://snomed.info/sct",
                      "code": "386864001",
                      "display": "Amlodipine (substance)"
                    }
                  ],
                  "text": "Amlodipine"
                },
                "strength": {
                  "numerator": {
                    "value": 10,
                    "unit": "mg"
                  },
                  "denominator": {
                    "value": 1
                  }
                }
              }
            ]
          }
        ],
        "extension": [
          {
            "url": "http://chmed20af.emediplan.ch/fhir/StructureDefinition/chmed20af-infoinputdocument",
            "extension": [
              {
                "url": "http://chmed20af.emediplan.ch/fhir/StructureDefinition/chmed20af-inputdocumentsource",
                "valueString": "EPD"
              },
              {
                "url": "http://chmed20af.emediplan.ch/fhir/StructureDefinition/chmed20af-inputdocumenttype",
                "valueCodeableConcept": {
                  "coding": [
                    {
                      "system": "http://loinc.org",
                      "code": "77603-9",
                      "display": "Medication treatment plan.extended"
                    }
                  ]
                }
              },
              {
                "url": "http://chmed20af.emediplan.ch/fhir/StructureDefinition/chmed20af-inputdocumentdate",
                "valueDateTime": "2012-02-04T14:00:00+01:00"
              }
            ]
          }
        ],
        "status": "completed",
        "category": {
          "coding": [
            {
              "system": "http://www.whocc.no/atc",
              "code": "C",
              "display": "Kardiovaskuläres System"
            }
          ]
        },
        "medicationReference": {
          "reference": "#med"
        },
        "subject": {
          "reference": "Patient/MonikaWegmueller"
        },
        "informationSource": {
          "reference": "Practitioner/FamilienHausarzt"
        },
        "reasonCode": [
          {
            "text": "Bluthochdruck"
          }
        ],
        "note": [
          {
            "text": "-"
          }
        ],
        "dosage": [
          {
            "extension": [
              {
                "url": "http://fhir.ch/ig/ch-emed/StructureDefinition/ch-emed-ext-dosagetype",
                "valueIdentifier": {
                  "value": "1.3.6.1.4.1.19376.1.5.3.1.4.7.1"
                }
              }
            ],
            "timing": {
              "repeat": {
                "boundsPeriod": {
                  "start": "2012-02-04"
                },
                "when": [
                  "ACM",
                  "ACV"
                ]
              }
            },
            "route": {
              "coding": [
                {
                  "system": "urn:oid:0.4.0.127.0.16.1.1.2.1",
                  "code": "20053000",
                  "display": "Oral use"
                }
              ]
            }
          },
          {
            "text": "Morgens und abends je 1 Tablette nehmen"
          }
        ]
      }
    },
    {
      "fullUrl": "http://test.fhir.ch/r4/Observation/2-6-History",
      "resource": {
        "resourceType": "Observation",
        "id": "2-6-History",
        "meta": {
          "profile": [
            "http://chmed20af.emediplan.ch/fhir/StructureDefinition/chmed20af-analyzer-observationhistory"
          ]
        },
        "text": {
          "status": "generated",
          "div": "<div xmlns=\"http://www.w3.org/1999/xhtml\"><p><b>Generated Narrative with Details</b></p><p><b>id</b>: 2-6-History</p><p><b>meta</b>: </p><p><b>status</b>: final</p><p><b>code</b>: OK <span style=\"background: LightGoldenRodYellow\">(Details : {urn:oid:1.3.6.1.4.1.19376.1.9.2.1 code 'OK' = 'OK)</span></p><p><b>value</b>: sameMedication <span style=\"background: LightGoldenRodYellow\">(Details : {http://chmed20af.emediplan.ch/fhir/CodeSystem/chmed20af-codesystem-history-changes code 'sameMedication' = 'sameMedication)</span></p></div>"
        },
        "status": "final",
        "code": {
          "coding": [
            {
              "system": "urn:oid:1.3.6.1.4.1.19376.1.9.2.1",
              "code": "OK"
            }
          ]
        },
        "valueCodeableConcept": {
          "coding": [
            {
              "system": "http://chmed20af.emediplan.ch/fhir/CodeSystem/chmed20af-codesystem-history-changes",
              "code": "sameMedication"
            }
          ]
        }
      }
    },
    {
      "fullUrl": "http://test.fhir.ch/r4/MedicationRequest/2-6-MedReqNorvasc-Analyzer",
      "resource": {
        "resourceType": "MedicationRequest",
        "id": "2-6-MedReqNorvasc-Analyzer",
        "meta": {
          "profile": [
            "http://chmed20af.emediplan.ch/fhir/StructureDefinition/chmed20af-analyzer-medicationrequest"
          ]
        },
        "text": {
          "status": "generated",
          "div": "<div xmlns=\"http://www.w3.org/1999/xhtml\"><p><b>Generated Narrative with Details</b></p><p><b>id</b>: 2-6-MedReqNorvasc-Analyzer</p><p><b>meta</b>: </p><p><b>contained</b>: </p><p><b>status</b>: completed</p><p><b>intent</b>: order</p><p><b>medication</b>: unknown resource contained</p><p><b>subject</b>: <a href=\"#backboneelement_MonikaWegmueller\">Generated Summary: unknown resource entry</a></p><p><b>performer</b>: <a href=\"#backboneelement_FamilienHausarzt\">Generated Summary: unknown resource entry</a></p><p><b>reasonCode</b>: - <span style=\"background: LightGoldenRodYellow\">(Details )</span></p><p><b>note</b>: -</p><p><b>dosageInstruction</b>: , </p><h3>DispenseRequests</h3><table class=\"grid\"><tr><td>-</td><td><b>NumberOfRepeatsAllowed</b></td><td><b>Quantity</b></td></tr><tr><td>*</td><td>2</td><td>1</td></tr></table><h3>Substitutions</h3><table class=\"grid\"><tr><td>-</td><td><b>Allowed[x]</b></td></tr><tr><td>*</td><td>equivalent <span style=\"background: LightGoldenRodYellow\">(Details : {http://terminology.hl7.org/CodeSystem/v3-substanceAdminSubstitution code 'E' = 'equivalent', given as 'equivalent'})</span></td></tr></table></div>"
        },
        "contained": [
          {
            "resourceType": "Medication",
            "id": "med",
            "code": {
              "coding": [
                {
                  "system": "urn:oid:2.51.1.1",
                  "code": "7680500440334",
                  "display": "NORVASC Tabl 10 mg"
                }
              ],
              "text": "NORVASC Tabl 10 mg"
            },
            "form": {
              "coding": [
                {
                  "system": "urn:oid:0.4.0.127.0.16.1.1.2.1",
                  "code": "10219000",
                  "display": "Tablet"
                }
              ]
            },
            "amount": {
              "numerator": {
                "value": 30
              },
              "denominator": {
                "value": 1
              }
            },
            "ingredient": [
              {
                "itemCodeableConcept": {
                  "coding": [
                    {
                      "system": "http://snomed.info/sct",
                      "code": "386864001",
                      "display": "Amlodipine (substance)"
                    }
                  ],
                  "text": "Amlodipine"
                },
                "strength": {
                  "numerator": {
                    "value": 10,
                    "unit": "mg"
                  },
                  "denominator": {
                    "value": 1
                  }
                }
              }
            ]
          }
        ],
        "extension": [
          {
            "url": "http://chmed20af.emediplan.ch/fhir/StructureDefinition/chmed20af-infoinputdocument",
            "extension": [
              {
                "url": "http://chmed20af.emediplan.ch/fhir/StructureDefinition/chmed20af-inputdocumentsource",
                "valueString": "EPD"
              },
              {
                "url": "http://chmed20af.emediplan.ch/fhir/StructureDefinition/chmed20af-inputdocumenttype",
                "valueCodeableConcept": {
                  "coding": [
                    {
                      "system": "http://loinc.org",
                      "code": "57833-6",
                      "display": "Prescription for medication"
                    }
                  ]
                }
              },
              {
                "url": "http://chmed20af.emediplan.ch/fhir/StructureDefinition/chmed20af-inputdocumentdate",
                "valueDateTime": "2012-02-04T14:00:00+01:00"
              }
            ]
          },
          {
            "url": "http://fhir.ch/ig/ch-emed/StructureDefinition/ch-emed-ext-treatmentplan",
            "extension": [
              {
                "url": "id",
                "valueIdentifier": {
                  "system": "urn:ietf:rfc:3986",
                  "value": "urn:uuid:5712fffe-20c6-11e6-b67b-9e71128cae77"
                }
              },
              {
                "url": "externalDocumentId",
                "valueIdentifier": {
                  "system": "urn:ietf:rfc:3986",
                  "value": "urn:uuid:5712fffe-20c6-11e6-b67b-9e71128cae77"
                }
              }
            ]
          }
        ],
        "status": "completed",
        "intent": "order",
        "medicationReference": {
          "reference": "#med"
        },
        "subject": {
          "reference": "Patient/MonikaWegmueller"
        },
        "performer": {
          "reference": "Practitioner/FamilienHausarzt"
        },
        "reasonCode": [
          {
            "text": "-"
          }
        ],
        "note": [
          {
            "text": "-"
          }
        ],
        "dosageInstruction": [
          {
            "extension": [
              {
                "url": "http://fhir.ch/ig/ch-emed/StructureDefinition/ch-emed-ext-dosagetype",
                "valueIdentifier": {
                  "value": "1.3.6.1.4.1.19376.1.5.3.1.4.7.1"
                }
              }
            ],
            "timing": {
              "repeat": {
                "boundsPeriod": {
                  "start": "2012-02-04"
                },
                "when": [
                  "ACM",
                  "ACV"
                ]
              }
            },
            "route": {
              "coding": [
                {
                  "system": "urn:oid:0.4.0.127.0.16.1.1.2.1",
                  "code": "20053000",
                  "display": "Oral use"
                }
              ]
            },
            "doseAndRate": [
              {
                "doseQuantity": {
                  "value": 1
                }
              }
            ]
          },
          {
            "text": "Morgens und abends je 1 Tablette nehmen"
          }
        ],
        "dispenseRequest": {
          "numberOfRepeatsAllowed": 2,
          "quantity": {
            "value": 1
          }
        },
        "substitution": {
          "allowedCodeableConcept": {
            "coding": [
              {
                "system": "http://terminology.hl7.org/CodeSystem/v3-substanceAdminSubstitution",
                "code": "E",
                "display": "equivalent"
              }
            ]
          }
        }
      }
    },
    {
      "fullUrl": "http://test.fhir.ch/r4/Observation/2-7-Norvasc-History",
      "resource": {
        "resourceType": "Observation",
        "id": "2-7-Norvasc-History",
        "meta": {
          "profile": [
            "http://chmed20af.emediplan.ch/fhir/StructureDefinition/chmed20af-analyzer-observationhistory"
          ]
        },
        "text": {
          "status": "generated",
          "div": "<div xmlns=\"http://www.w3.org/1999/xhtml\"><p><b>Generated Narrative with Details</b></p><p><b>id</b>: 2-7-Norvasc-History</p><p><b>meta</b>: </p><p><b>status</b>: final</p><p><b>code</b>: OK <span style=\"background: LightGoldenRodYellow\">(Details : {urn:oid:1.3.6.1.4.1.19376.1.9.2.1 code 'OK' = 'OK)</span></p><p><b>value</b>: sameMedication <span style=\"background: LightGoldenRodYellow\">(Details : {http://chmed20af.emediplan.ch/fhir/CodeSystem/chmed20af-codesystem-history-changes code 'sameMedication' = 'sameMedication)</span></p></div>"
        },
        "status": "final",
        "code": {
          "coding": [
            {
              "system": "urn:oid:1.3.6.1.4.1.19376.1.9.2.1",
              "code": "OK"
            }
          ]
        },
        "valueCodeableConcept": {
          "coding": [
            {
              "system": "http://chmed20af.emediplan.ch/fhir/CodeSystem/chmed20af-codesystem-history-changes",
              "code": "sameMedication"
            }
          ]
        }
      }
    },
    {
      "fullUrl": "http://test.fhir.ch/r4/MedicationStatement/2-7-MedStatNorvascFromCard-Analyzer",
      "resource": {
        "resourceType": "MedicationStatement",
        "id": "2-7-MedStatNorvascFromCard-Analyzer",
        "meta": {
          "profile": [
            "http://chmed20af.emediplan.ch/fhir/StructureDefinition/chmed20af-analyzer-medicationstatement"
          ]
        },
        "text": {
          "status": "generated",
          "div": "<div xmlns=\"http://www.w3.org/1999/xhtml\"><p><b>Generated Narrative with Details</b></p><p><b>id</b>: 2-7-MedStatNorvascFromCard-Analyzer</p><p><b>meta</b>: </p><p><b>contained</b>: </p><p><b>status</b>: completed</p><p><b>category</b>: Kardiovaskuläres System <span style=\"background: LightGoldenRodYellow\">(Details : {http://www.whocc.no/atc code 'C' = 'C', given as 'Kardiovaskuläres System'})</span></p><p><b>medication</b>: unknown resource contained</p><p><b>subject</b>: <a href=\"#backboneelement_MonikaWegmueller\">Generated Summary: unknown resource entry</a></p><p><b>informationSource</b>: <a href=\"#backboneelement_FamilienHausarzt\">Generated Summary: unknown resource entry</a></p><p><b>reasonCode</b>: Bluthochdruck <span style=\"background: LightGoldenRodYellow\">(Details )</span></p><p><b>note</b>: -</p><p><b>dosage</b>: , </p></div>"
        },
        "contained": [
          {
            "resourceType": "Medication",
            "id": "med",
            "code": {
              "coding": [
                {
                  "system": "urn:oid:2.51.1.1",
                  "code": "7680500440334",
                  "display": "NORVASC Tabl 10 mg"
                }
              ],
              "text": "NORVASC Tabl 10 mg"
            },
            "form": {
              "coding": [
                {
                  "system": "urn:oid:0.4.0.127.0.16.1.1.2.1",
                  "code": "10219000",
                  "display": "Tablet"
                }
              ]
            },
            "amount": {
              "numerator": {
                "value": 30
              },
              "denominator": {
                "value": 1
              }
            },
            "ingredient": [
              {
                "itemCodeableConcept": {
                  "coding": [
                    {
                      "system": "http://snomed.info/sct",
                      "code": "386864001",
                      "display": "Amlodipine (substance)"
                    }
                  ],
                  "text": "Amlodipine"
                },
                "strength": {
                  "numerator": {
                    "value": 10,
                    "unit": "mg"
                  },
                  "denominator": {
                    "value": 1
                  }
                }
              }
            ]
          }
        ],
        "extension": [
          {
            "url": "http://chmed20af.emediplan.ch/fhir/StructureDefinition/chmed20af-infoinputdocument",
            "extension": [
              {
                "url": "http://chmed20af.emediplan.ch/fhir/StructureDefinition/chmed20af-inputdocumentsource",
                "valueString": "EPD"
              },
              {
                "url": "http://chmed20af.emediplan.ch/fhir/StructureDefinition/chmed20af-inputdocumenttype",
                "valueCodeableConcept": {
                  "coding": [
                    {
                      "system": "http://loinc.org",
                      "code": "56445-0",
                      "display": "Medication summary"
                    }
                  ]
                }
              },
              {
                "url": "http://chmed20af.emediplan.ch/fhir/StructureDefinition/chmed20af-inputdocumentdate",
                "valueDateTime": "2012-02-04T14:05:00+01:00"
              }
            ]
          },
          {
            "url": "http://fhir.ch/ig/ch-emed/StructureDefinition/ch-emed-ext-treatmentplan",
            "extension": [
              {
                "url": "id",
                "valueIdentifier": {
                  "system": "urn:ietf:rfc:3986",
                  "value": "urn:uuid:5712fffe-20c6-11e6-b67b-9e71128cae77"
                }
              },
              {
                "url": "externalDocumentId",
                "valueIdentifier": {
                  "system": "urn:ietf:rfc:3986",
                  "value": "urn:uuid:5712fffe-20c6-11e6-b67b-9e71128cae77"
                }
              }
            ]
          }
        ],
        "status": "completed",
        "category": {
          "coding": [
            {
              "system": "http://www.whocc.no/atc",
              "code": "C",
              "display": "Kardiovaskuläres System"
            }
          ]
        },
        "medicationReference": {
          "reference": "#med"
        },
        "subject": {
          "reference": "Patient/MonikaWegmueller"
        },
        "informationSource": {
          "reference": "Practitioner/FamilienHausarzt"
        },
        "reasonCode": [
          {
            "text": "Bluthochdruck"
          }
        ],
        "note": [
          {
            "text": "-"
          }
        ],
        "dosage": [
          {
            "extension": [
              {
                "url": "http://fhir.ch/ig/ch-emed/StructureDefinition/ch-emed-ext-dosagetype",
                "valueIdentifier": {
                  "value": "1.3.6.1.4.1.19376.1.5.3.1.4.7.1"
                }
              }
            ],
            "timing": {
              "repeat": {
                "boundsPeriod": {
                  "start": "2012-02-04"
                },
                "when": [
                  "ACM",
                  "ACV"
                ]
              }
            },
            "route": {
              "coding": [
                {
                  "system": "urn:oid:0.4.0.127.0.16.1.1.2.1",
                  "code": "20053000",
                  "display": "Oral use"
                }
              ]
            },
            "doseAndRate": [
              {
                "doseQuantity": {
                  "value": 1
                }
              }
            ]
          },
          {
            "text": "Morgens und abends je 1 Tablette nehmen"
          }
        ]
      }
    }
  ]
}