<?xml version="1.0" encoding="UTF-8"?>

<Bundle xmlns="http://hl7.org/fhir">
  <id value="NorvascPRE-ConsolidatedMedicationCard"/>
  <meta>
    <profile value="http://chmed20af.emediplan.ch/fhir/StructureDefinition/chmed20af-analyzer-bundle"/>
  </meta>
  <identifier>
    <system value="http://emediplan.ch/chmed20af/id"/>
    <value value="26d3dff7-ab05-4737-a49c-5eccd3356669"/>
  </identifier>
  <type value="document"/>
  <timestamp value="2020-04-03T12:00:00.000+00:00"/>
  <entry>
    <fullUrl value="http://test.fhir.ch/r4/Composition/2-6-Analyzer"/>
    <resource>
      <Composition>
        <id value="2-6-Analyzer"/>
        <meta>
          <profile value="http://chmed20af.emediplan.ch/fhir/StructureDefinition/chmed20af-analyzer-composition"/>
        </meta>
        <text>
          <status value="generated"/><div xmlns="http://www.w3.org/1999/xhtml"><p><b>Generated Narrative with Details</b></p><p><b>id</b>: 2-6-Analyzer</p><p><b>meta</b>: </p><p><b>status</b>: final</p><p><b>type</b>: Medication summary document (record artifact) <span style="background: LightGoldenRodYellow">(Details : {SNOMED CT code '721912009' = 'Medication summary document (record artifact)', given as 'Medication summary document (record artifact)'})</span></p><p><b>date</b>: Apr 3, 2020, 2:00:00 PM</p><p><b>author</b>: <a href="#backboneelement_Analyzer">Generated Summary: unknown resource entry</a></p><p><b>title</b>: Medikationsplan</p></div>
        </text>
        <status value="final"/>
        <type>
          <coding>
            <system value="http://snomed.info/sct"/>
            <code value="721912009"/>
            <display value="Medication summary document (record artifact)"/>
          </coding>
        </type>
        <subject>
          <reference value="Patient/MonikaWegmueller"/>
        </subject>
        <date value="2020-04-03T12:00:00.000+00:00"/>
        <author>
          <reference value="Device/Analyzer"/>
        </author>
        <title value="Medikationsplan"/>
        <section>
          <entry>
            <reference value="MedicationStatement/2-6-MedStatNorvasc-Analyzer"/>
          </entry>
        </section>
      </Composition>
    </resource>
  </entry>
  <entry>
    <fullUrl value="http://test.fhir.ch/r4/Patient/MonikaWegmueller"/>
    <resource>
      <Patient>
        <id value="MonikaWegmueller"/>
        <meta>
          <profile value="http://chmed20af.emediplan.ch/fhir/StructureDefinition/chmed20af-analyzer-patient"/>
        </meta>
        <text>
          <status value="generated"/><div xmlns="http://www.w3.org/1999/xhtml"><p><b>Generated Narrative with Details</b></p><p><b>id</b>: MonikaWegmueller</p><p><b>meta</b>: </p><p><b>identifier</b>: Medical record number = 11111111</p><p><b>name</b>: Monika Wegm체ller </p><p><b>gender</b>: female</p><p><b>birthDate</b>: 1943-05-15</p><p><b>address</b>: Wiesenstr. 12 Z체rich 8003 CH </p></div>
        </text>
        <identifier>
          <type>
            <coding>
              <system value="http://terminology.hl7.org/CodeSystem/v2-0203"/>
              <code value="MR"/>
            </coding>
          </type>
          <system value="urn:oid:2.999"/>
          <value value="11111111"/>
        </identifier>
        <name>
          <family value="Wegm&#xFC;ller"/>
          <given value="Monika"/>
        </name>
        <gender value="female"/>
        <birthDate value="1943-05-15"/>
        <address>
          <line value="Wiesenstr. 12"/>
          <city value="Z&#xFC;rich"/>
          <postalCode value="8003"/>
          <country value="CH"/>
        </address>
      </Patient>
    </resource>
  </entry>
  <entry>
    <fullUrl value="http://test.fhir.ch/r4/Practitioner/FamilienHausarzt"/>
    <resource>
      <Practitioner>
        <id value="FamilienHausarzt"/>
        <meta>
          <profile value="http://chmed20af.emediplan.ch/fhir/StructureDefinition/chmed20af-analyzer-practitioner"/>
        </meta>
        <text>
          <status value="generated"/><div xmlns="http://www.w3.org/1999/xhtml"><p><b>Generated Narrative with Details</b></p><p><b>id</b>: FamilienHausarzt</p><p><b>meta</b>: </p><p><b>identifier</b>: 7601000234438</p><p><b>name</b>: Familien Hausarzt </p></div>
        </text>
        <identifier>
          <system value="urn:oid:2.51.1.3"/>
          <value value="7601000234438"/>
        </identifier>
        <name>
          <family value="Hausarzt"/>
          <given value="Familien"/>
        </name>
      </Practitioner>
    </resource>
  </entry>
  <entry>
    <fullUrl value="http://test.fhir.ch/r4/Device/Analyzer"/>
    <resource>
      <Device>
        <id value="Analyzer"/>
        <meta>
          <profile value="http://hl7.org/fhir/StructureDefinition/Device"/>
        </meta>
        <text>
          <status value="generated"/><div xmlns="http://www.w3.org/1999/xhtml"><p><b>Generated Narrative with Details</b></p><p><b>id</b>: Analyzer</p><p><b>meta</b>: </p><h3>DeviceNames</h3><table class="grid"><tr><td>-</td><td><b>Name</b></td><td><b>Type</b></td></tr><tr><td>*</td><td>Analyzer</td><td>user-friendly-name</td></tr></table><h3>Versions</h3><table class="grid"><tr><td>-</td><td><b>Value</b></td></tr><tr><td>*</td><td>V1</td></tr></table></div>
        </text>
        <deviceName>
          <name value="Analyzer"/>
          <type value="user-friendly-name"/>
        </deviceName>
        <version>
          <value value="V1"/>
        </version>
      </Device>
    </resource>
  </entry>
<!--  Section entry: MedicationStatement  -->
  <entry>
    <fullUrl value="http://test.fhir.ch/r4/MedicationStatement/2-6-MedStatNorvasc-Analyzer"/>
    <resource>
      <MedicationStatement>
        <id value="2-6-MedStatNorvasc-Analyzer"/>
        <meta>
          <profile value="http://chmed20af.emediplan.ch/fhir/StructureDefinition/chmed20af-analyzer-medicationstatement"/>
        </meta>
        <text>
          <status value="generated"/><div xmlns="http://www.w3.org/1999/xhtml"><p><b>Generated Narrative with Details</b></p><p><b>id</b>: 2-6-MedStatNorvasc-Analyzer</p><p><b>meta</b>: </p><p><b>contained</b>: </p><p><b>status</b>: completed</p><p><b>category</b>: Kardiovaskul채res System <span style="background: LightGoldenRodYellow">(Details : {http://www.whocc.no/atc code 'C' = 'C', given as 'Kardiovaskul채res System'})</span></p><p><b>medication</b>: unknown resource contained</p><p><b>subject</b>: <a href="#backboneelement_MonikaWegmueller">Generated Summary: unknown resource entry</a></p><p><b>informationSource</b>: <a href="#backboneelement_FamilienHausarzt">Generated Summary: unknown resource entry</a></p><p><b>derivedFrom</b>: </p><ul><li><a href="#backboneelement_2-5-MedStatNorvasc-Analyzer">Generated Summary: unknown resource entry</a></li><li><a href="#backboneelement_2-6-History">Generated Summary: unknown resource entry</a></li><li><a href="#backboneelement_2-6-MedReqNorvasc-Analyzer">Generated Summary: unknown resource entry</a></li></ul><p><b>dosage</b>: , </p></div>
        </text>
        <contained>
          <Medication>
            <id value="med"/>
            <code>
              <coding>
                <system value="urn:oid:2.51.1.1"/>
                <code value="7680500440334"/>
                <display value="NORVASC Tabl 10 mg"/>
              </coding>
              <text value="NORVASC Tabl 10 mg"/>
            </code>
            <form>
              <coding>
                <system value="urn:oid:0.4.0.127.0.16.1.1.2.1"/>
                <code value="10219000"/>
                <display value="Tablet"/>
              </coding>
            </form>
            <amount>
              <numerator>
                <value value="30"/>
              </numerator>
              <denominator>
                <value value="1"/>
              </denominator>
            </amount>
            <ingredient>
              <itemCodeableConcept>
                <coding>
                  <system value="http://snomed.info/sct"/>
                  <code value="386864001"/>
                  <display value="Amlodipine (substance)"/>
                </coding>
                <text value="Amlodipine"/>
              </itemCodeableConcept>
              <strength>
                <numerator>
                  <value value="10"/>
                  <unit value="mg"/>
                </numerator>
                <denominator>
                  <value value="1"/>
                </denominator>
              </strength>
            </ingredient>
          </Medication>
        </contained>
        <status value="completed"/>
        <category>
          <coding>
            <system value="http://www.whocc.no/atc"/>
            <code value="C"/>
            <display value="Kardiovaskul&#xE4;res System"/>
          </coding>
        </category>
        <medicationReference>
          <reference value="#med"/>
        </medicationReference>
        <subject>
          <reference value="Patient/MonikaWegmueller"/>
        </subject>
        <informationSource>
          <reference value="Practitioner/FamilienHausarzt"/>
        </informationSource>
      <!--  History  -->
      <!--  2-5 Entscheid (Norvasc)  -->
        <derivedFrom>
          <reference value="MedicationStatement/2-5-MedStatNorvasc-Analyzer"/>
        </derivedFrom>
      <!--  Aenderung von Entscheid zu Rezept (Norvasc)  -->
        <derivedFrom>
          <reference value="Observation/2-6-History"/>
        </derivedFrom>
      <!--  2-6 Rezept (Norvasc)  -->
        <derivedFrom>
          <reference value="MedicationRequest/2-6-MedReqNorvasc-Analyzer"/>
        </derivedFrom>
      <!-- <reasonCode>
                    <text value="Bluthochdruck"/>
                </reasonCode> -->
      <!-- <note>
                    <text value="-"/>
                </note> -->
        <dosage>
        <!-- <extension url="http://fhir.ch/ig/ch-emed/StructureDefinition/ch-emed-ext-dosagetype">
                        <valueIdentifier>
                            <value value="1.3.6.1.4.1.19376.1.5.3.1.4.7.1"/>
                        </valueIdentifier>
                    </extension> -->
          <timing>
            <repeat>
              <boundsPeriod>
                <start value="2012-02-04"/>
              </boundsPeriod>
              <when value="ACM"/>
              <when value="ACV"/>
            </repeat>
          </timing>
          <route>
            <coding>
              <system value="urn:oid:0.4.0.127.0.16.1.1.2.1"/>
              <code value="20053000"/>
              <display value="Oral use"/>
            </coding>
          </route>
        </dosage>
        <dosage>
          <text value="Morgens und abends je 1 Tablette nehmen"/>
        </dosage>
      </MedicationStatement>
    </resource>
  </entry>
<!--  Section entry: Reference from MedicationStatement.derivedFrom (History)  -->
  <entry>
    <fullUrl value="http://test.fhir.ch/r4/MedicationStatement/2-5-MedStatNorvasc-Analyzer"/>
    <resource>
      <MedicationStatement>
        <id value="2-5-MedStatNorvasc-Analyzer"/>
        <meta>
          <profile value="http://chmed20af.emediplan.ch/fhir/StructureDefinition/chmed20af-analyzer-medicationstatement"/>
        </meta>
        <text>
          <status value="generated"/><div xmlns="http://www.w3.org/1999/xhtml"><p><b>Generated Narrative with Details</b></p><p><b>id</b>: 2-5-MedStatNorvasc-Analyzer</p><p><b>meta</b>: </p><p><b>contained</b>: </p><p><b>status</b>: completed</p><p><b>category</b>: Kardiovaskul채res System <span style="background: LightGoldenRodYellow">(Details : {http://www.whocc.no/atc code 'C' = 'C', given as 'Kardiovaskul채res System'})</span></p><p><b>medication</b>: unknown resource contained</p><p><b>subject</b>: <a href="#backboneelement_MonikaWegmueller">Generated Summary: unknown resource entry</a></p><p><b>informationSource</b>: <a href="#backboneelement_FamilienHausarzt">Generated Summary: unknown resource entry</a></p><p><b>reasonCode</b>: Bluthochdruck <span style="background: LightGoldenRodYellow">(Details )</span></p><p><b>note</b>: -</p><p><b>dosage</b>: , </p></div>
        </text>
        <contained>
          <Medication>
            <id value="med"/>
            <code>
              <coding>
                <system value="urn:oid:2.51.1.1"/>
                <code value="7680500440334"/>
                <display value="NORVASC Tabl 10 mg"/>
              </coding>
              <text value="NORVASC Tabl 10 mg"/>
            </code>
            <form>
              <coding>
                <system value="urn:oid:0.4.0.127.0.16.1.1.2.1"/>
                <code value="10219000"/>
                <display value="Tablet"/>
              </coding>
            </form>
            <amount>
              <numerator>
                <value value="30"/>
              </numerator>
              <denominator>
                <value value="1"/>
              </denominator>
            </amount>
            <ingredient>
              <itemCodeableConcept>
                <coding>
                  <system value="http://snomed.info/sct"/>
                  <code value="386864001"/>
                  <display value="Amlodipine (substance)"/>
                </coding>
                <text value="Amlodipine"/>
              </itemCodeableConcept>
              <strength>
                <numerator>
                  <value value="10"/>
                  <unit value="mg"/>
                </numerator>
                <denominator>
                  <value value="1"/>
                </denominator>
              </strength>
            </ingredient>
          </Medication>
        </contained>
        <extension url="http://chmed20af.emediplan.ch/fhir/StructureDefinition/chmed20af-infoinputdocument">
          <extension url="http://chmed20af.emediplan.ch/fhir/StructureDefinition/chmed20af-inputdocumentsource">
            <valueString value="EPD"/>
          </extension>
          <extension url="http://chmed20af.emediplan.ch/fhir/StructureDefinition/chmed20af-inputdocumenttype">
            <valueCodeableConcept>
              <coding>
                <system value="http://loinc.org"/>
                <code value="77603-9"/>
                <display value="Medication treatment plan.extended"/>
              </coding>
            </valueCodeableConcept>
          </extension>
          <extension url="http://chmed20af.emediplan.ch/fhir/StructureDefinition/chmed20af-inputdocumentdate">
            <valueDateTime value="2012-02-04T14:00:00+01:00"/>
          </extension>
        </extension>
        <status value="completed"/>
        <category>
          <coding>
            <system value="http://www.whocc.no/atc"/>
            <code value="C"/>
            <display value="Kardiovaskul&#xE4;res System"/>
          </coding>
        </category>
        <medicationReference>
          <reference value="#med"/>
        </medicationReference>
        <subject>
          <reference value="Patient/MonikaWegmueller"/>
        </subject>
        <informationSource>
          <reference value="Practitioner/FamilienHausarzt"/>
        </informationSource>
        <reasonCode>
          <text value="Bluthochdruck"/>
        </reasonCode>
        <note>
          <text value="-"/>
        </note>
        <dosage>
          <extension url="http://fhir.ch/ig/ch-emed/StructureDefinition/ch-emed-ext-dosagetype">
            <valueIdentifier>
              <value value="1.3.6.1.4.1.19376.1.5.3.1.4.7.1"/>
            </valueIdentifier>
          </extension>
          <timing>
            <repeat>
              <boundsPeriod>
                <start value="2012-02-04"/>
              </boundsPeriod>
              <when value="ACM"/>
              <when value="ACV"/>
            </repeat>
          </timing>
          <route>
            <coding>
              <system value="urn:oid:0.4.0.127.0.16.1.1.2.1"/>
              <code value="20053000"/>
              <display value="Oral use"/>
            </coding>
          </route>
        </dosage>
        <dosage>
          <text value="Morgens und abends je 1 Tablette nehmen"/>
        </dosage>
      </MedicationStatement>
    </resource>
  </entry>
<!--  Section entry: Reference from MedicationStatement.derivedFrom (History)  -->
  <entry>
    <fullUrl value="http://test.fhir.ch/r4/Observation/2-6-History"/>
    <resource>
      <Observation>
        <id value="2-6-History"/>
        <meta>
          <profile value="http://chmed20af.emediplan.ch/fhir/StructureDefinition/chmed20af-analyzer-observationhistory"/>
        </meta>
        <text>
          <status value="generated"/><div xmlns="http://www.w3.org/1999/xhtml"><p><b>Generated Narrative with Details</b></p><p><b>id</b>: 2-6-History</p><p><b>meta</b>: </p><p><b>status</b>: final</p><p><b>code</b>: OK <span style="background: LightGoldenRodYellow">(Details : {urn:oid:1.3.6.1.4.1.19376.1.9.2.1 code 'OK' = 'OK)</span></p><p><b>value</b>: sameMedication <span style="background: LightGoldenRodYellow">(Details : {http://chmed20af.emediplan.ch/fhir/CodeSystem/chmed20af-codesystem-history-changes code 'sameMedication' = 'sameMedication)</span></p></div>
        </text>
        <status value="final"/>
        <code>
          <coding>
            <system value="urn:oid:1.3.6.1.4.1.19376.1.9.2.1"/>
            <code value="OK"/>
          </coding>
        </code>
        <valueCodeableConcept>
          <coding>
            <system value="http://chmed20af.emediplan.ch/fhir/CodeSystem/chmed20af-codesystem-history-changes"/>
            <code value="sameMedication"/>
          </coding>
        </valueCodeableConcept>
      </Observation>
    </resource>
  </entry>
<!--  Section entry: Reference from MedicationStatement.derivedFrom (History)  -->
  <entry>
    <fullUrl value="http://test.fhir.ch/r4/MedicationRequest/2-6-MedReqNorvasc-Analyzer"/>
    <resource>
      <MedicationRequest>
        <id value="2-6-MedReqNorvasc-Analyzer"/>
        <meta>
          <profile value="http://chmed20af.emediplan.ch/fhir/StructureDefinition/chmed20af-analyzer-medicationrequest"/>
        </meta>
        <text>
          <status value="generated"/><div xmlns="http://www.w3.org/1999/xhtml"><p><b>Generated Narrative with Details</b></p><p><b>id</b>: 2-6-MedReqNorvasc-Analyzer</p><p><b>meta</b>: </p><p><b>contained</b>: </p><p><b>status</b>: completed</p><p><b>intent</b>: order</p><p><b>medication</b>: unknown resource contained</p><p><b>subject</b>: <a href="#backboneelement_MonikaWegmueller">Generated Summary: unknown resource entry</a></p><p><b>performer</b>: <a href="#backboneelement_FamilienHausarzt">Generated Summary: unknown resource entry</a></p><p><b>reasonCode</b>: - <span style="background: LightGoldenRodYellow">(Details )</span></p><p><b>note</b>: -</p><p><b>dosageInstruction</b>: , </p><h3>DispenseRequests</h3><table class="grid"><tr><td>-</td><td><b>NumberOfRepeatsAllowed</b></td><td><b>Quantity</b></td></tr><tr><td>*</td><td>2</td><td>1</td></tr></table><h3>Substitutions</h3><table class="grid"><tr><td>-</td><td><b>Allowed[x]</b></td></tr><tr><td>*</td><td>equivalent <span style="background: LightGoldenRodYellow">(Details : {http://terminology.hl7.org/CodeSystem/v3-substanceAdminSubstitution code 'E' = 'equivalent', given as 'equivalent'})</span></td></tr></table></div>
        </text>
        <contained>
          <Medication>
            <id value="med"/>
            <code>
              <coding>
                <system value="urn:oid:2.51.1.1"/>
                <code value="7680500440334"/>
                <display value="NORVASC Tabl 10 mg"/>
              </coding>
              <text value="NORVASC Tabl 10 mg"/>
            </code>
            <form>
              <coding>
                <system value="urn:oid:0.4.0.127.0.16.1.1.2.1"/>
                <code value="10219000"/>
                <display value="Tablet"/>
              </coding>
            </form>
            <amount>
              <numerator>
                <value value="30"/>
              </numerator>
              <denominator>
                <value value="1"/>
              </denominator>
            </amount>
            <ingredient>
              <itemCodeableConcept>
                <coding>
                  <system value="http://snomed.info/sct"/>
                  <code value="386864001"/>
                  <display value="Amlodipine (substance)"/>
                </coding>
                <text value="Amlodipine"/>
              </itemCodeableConcept>
              <strength>
                <numerator>
                  <value value="10"/>
                  <unit value="mg"/>
                </numerator>
                <denominator>
                  <value value="1"/>
                </denominator>
              </strength>
            </ingredient>
          </Medication>
        </contained>
        <extension url="http://chmed20af.emediplan.ch/fhir/StructureDefinition/chmed20af-infoinputdocument">
          <extension url="http://chmed20af.emediplan.ch/fhir/StructureDefinition/chmed20af-inputdocumentsource">
            <valueString value="EPD"/>
          </extension>
          <extension url="http://chmed20af.emediplan.ch/fhir/StructureDefinition/chmed20af-inputdocumenttype">
            <valueCodeableConcept>
              <coding>
                <system value="http://loinc.org"/>
                <code value="57833-6"/>
                <display value="Prescription for medication"/>
              </coding>
            </valueCodeableConcept>
          </extension>
          <extension url="http://chmed20af.emediplan.ch/fhir/StructureDefinition/chmed20af-inputdocumentdate">
            <valueDateTime value="2012-02-04T14:00:00+01:00"/>
          </extension>
        </extension>
        <extension url="http://fhir.ch/ig/ch-emed/StructureDefinition/ch-emed-ext-treatmentplan">
          <extension url="id">
            <valueIdentifier>
              <system value="urn:ietf:rfc:3986"/>
              <value value="urn:uuid:5712fffe-20c6-11e6-b67b-9e71128cae77"/>
            </valueIdentifier>
          </extension>
          <extension url="externalDocumentId">
            <valueIdentifier>
              <system value="urn:ietf:rfc:3986"/>
              <value value="urn:uuid:5712fffe-20c6-11e6-b67b-9e71128cae77"/>
            </valueIdentifier>
          </extension>
        </extension>
        <status value="completed"/>
        <intent value="order"/>
        <medicationReference>
          <reference value="#med"/>
        </medicationReference>
        <subject>
          <reference value="Patient/MonikaWegmueller"/>
        </subject>
        <performer>
          <reference value="Practitioner/FamilienHausarzt"/>
        </performer>
        <reasonCode>
          <text value="-"/>
        </reasonCode>
        <note>
          <text value="-"/>
        </note>
        <dosageInstruction>
          <extension url="http://fhir.ch/ig/ch-emed/StructureDefinition/ch-emed-ext-dosagetype">
            <valueIdentifier>
              <value value="1.3.6.1.4.1.19376.1.5.3.1.4.7.1"/>
            </valueIdentifier>
          </extension>
          <timing>
            <repeat>
              <boundsPeriod>
                <start value="2012-02-04"/>
              </boundsPeriod>
              <when value="ACM"/>
              <when value="ACV"/>
            </repeat>
          </timing>
          <route>
            <coding>
              <system value="urn:oid:0.4.0.127.0.16.1.1.2.1"/>
              <code value="20053000"/>
              <display value="Oral use"/>
            </coding>
          </route>
          <doseAndRate>
            <doseQuantity>
              <value value="1"/>
            </doseQuantity>
          </doseAndRate>
        </dosageInstruction>
        <dosageInstruction>
          <text value="Morgens und abends je 1 Tablette nehmen"/>
        </dosageInstruction>
        <dispenseRequest>
          <numberOfRepeatsAllowed value="2"/>
          <quantity>
            <value value="1"/>
          </quantity>
        </dispenseRequest>
      <!--  substitution just as test case  -->
        <substitution>
          <allowedCodeableConcept>
            <coding>
              <system value="http://terminology.hl7.org/CodeSystem/v3-substanceAdminSubstitution"/>
              <code value="E"/>
              <display value="equivalent"/>
            </coding>
          </allowedCodeableConcept>
        </substitution>
      </MedicationRequest>
    </resource>
  </entry>
</Bundle>