{
  "resourceType": "Bundle",
  "id": "chmed20af-pre-bundle-s01",
  "meta": {
    "lastUpdated": "2019-05-29T15:32:26.603+02:00",
    "profile": [
      "http://chmed20af.emediplan.ch/fhir/StructureDefinition/chmed20af-pre-bundle"
    ]
  },
  "identifier": {
    "system": "http://emediplan.ch/chmed20af/id",
    "value": "645bb0c3-ff7e-4123-bef5-3852a4784813"
  },
  "type": "document",
  "timestamp": "2017-05-27T11:46:09+02:00",
  "entry": [
    {
      "fullUrl": "http://localhost:8080/r4/Composition/5",
      "resource": {
        "resourceType": "Composition",
        "id": "5",
        "meta": {
          "versionId": "1",
          "lastUpdated": "2019-05-29T14:58:58.181+02:00",
          "profile": [
            "http://chmed20af.emediplan.ch/fhir/StructureDefinition/chmed20af-pre-composition"
          ]
        },
        "language": "de-CH",
        "text": {
          "status": "generated",
          "div": "<div xmlns=\"http://www.w3.org/1999/xhtml\" xml:lang=\"de-CH\" lang=\"de-CH\">Prescription </div>"
        },
        "extension": [
          {
            "url": "http://fhir.ch/ig/ch-core/StructureDefinition/ch-ext-epr-setid",
            "valueIdentifier": {
              "system": "http://emediplan.ch/chmed20af/id",
              "value": "645bb0c3-ff7e-4123-bef5-3852a4784813"
            }
          },
          {
            "url": "http://fhir.ch/ig/ch-core/StructureDefinition/ch-ext-epr-versionnumber",
            "valueUnsignedInt": 1
          },
          {
            "url": "http://fhir.ch/ig/ch-core/StructureDefinition/ch-ext-epr-informationrecipient",
            "valueReference": {
              "reference": "Practitioner/9"
            }
          }
        ],
        "identifier": {
          "system": "http://emediplan.ch/chmed20af/id",
          "value": "645bb0c3-ff7e-4123-bef5-3852a4784813"
        },
        "status": "final",
        "type": {
          "coding": [
            {
              "system": "http://snomed.info/sct",
              "code": "761938008",
              "display": "Medical Prescription record (record artifact)"
            }
          ]
        },
        "subject": {
          "reference": "http://localhost:8080/r4/Patient/7"
        },
        "date": "2017-05-27T11:46:09+02:00",
        "author": [
          {
            "reference": "Practitioner/9"
          }
        ],
        "title": "Prescription",
        "confidentiality": "N",
        "_confidentiality": {
          "extension": [
            {
              "url": "http://fhir.ch/ig/ch-core/StructureDefinition/ch-ext-epr-confidentialitycode",
              "valueCodeableConcept": {
                "coding": [
                  {
                    "system": "http://snomed.info/sct",
                    "code": "17621005",
                    "display": "Normally accessible"
                  }
                ]
              }
            }
          ]
        },
        "custodian": {
          "reference": "Organization/10"
        },
        "section": [
          {
            "title": "Verordnung",
            "code": {
              "coding": [
                {
                  "system": "http://loinc.org",
                  "code": "57828-6",
                  "display": "PRESCRIPTIONS"
                }
              ]
            },
            "text": {
              "status": "additional",
              "div": "<div xmlns=\"http://www.w3.org/1999/xhtml\"> Verordnung </div>"
            },
            "entry": [
              {
                "reference": "MedicationRequest/10"
              }
            ]
          },
          {
            "title": "Bemerkungen",
            "code": {
              "coding": [
                {
                  "system": "http://loinc.org",
                  "code": "48767-8",
                  "display": "Annotation comment"
                }
              ]
            },
            "text": {
              "status": "additional",
              "div": "<div xmlns=\"http://www.w3.org/1999/xhtml\"> Bemerkung </div>"
            }
          }
        ]
      }
    },
    {
      "fullUrl": "http://localhost:8080/r4/Patient/7",
      "resource": {
        "resourceType": "Patient",
        "id": "7",
        "meta": {
          "versionId": "1",
          "lastUpdated": "2019-05-29T14:58:58.181+02:00",
          "profile": [
            "http://chmed20af.emediplan.ch/fhir/StructureDefinition/chmed20af-card-patient"
          ]
        },
        "text": {
          "status": "generated",
          "div": "<div xmlns=\"http://www.w3.org/1999/xhtml\">Maxima, Matter, geb 1981-01-12 </div>"
        },
        "identifier": [
          {
            "type": {
              "coding": [
                {
                  "system": "http://terminology.hl7.org/CodeSystem/v2-0203",
                  "code": "MR"
                }
              ]
            },
            "system": "urn:oid:2.999",
            "value": "12345678"
          }
        ],
        "name": [
          {
            "family": "Matter",
            "given": [
              "Maxima"
            ]
          }
        ],
        "telecom": [
          {
            "system": "phone",
            "value": "+41588512600",
            "use": "home"
          }
        ],
        "gender": "female",
        "birthDate": "1981-01-12",
        "address": [
          {
            "line": [
              "Untermattweg 8"
            ],
            "city": "Bern",
            "postalCode": "3027"
          }
        ],
        "communication": [
          {
            "language": {
              "coding": [
                {
                  "system": "urn:ietf:bcp:47",
                  "code": "de-CH",
                  "display": "German (Region=Switzerland)"
                }
              ]
            },
            "preferred": true
          }
        ]
      }
    },
    {
      "fullUrl": "http://localhost:8080/r4/Practitioner/9",
      "resource": {
        "resourceType": "Practitioner",
        "id": "9",
        "meta": {
          "versionId": "1",
          "lastUpdated": "2019-05-29T14:58:58.181+02:00",
          "profile": [
            "http://chmed20af.emediplan.ch/fhir/StructureDefinition/chmed20af-practitioner"
          ]
        },
        "text": {
          "status": "generated",
          "div": "<div xmlns=\"http://www.w3.org/1999/xhtml\">\n                  <p>Thomas Wälti </p>\n               </div>"
        },
        "identifier": [
          {
            "use": "official",
            "system": "urn:oid:2.51.1.3",
            "value": "7601003178999"
          },
          {
            "use": "official",
            "system": "urn:oid:2.16.756.5.30.1.123.100.2.1.1",
            "value": "ZSR"
          }
        ],
        "name": [
          {
            "family": "Wälti",
            "given": [
              "Thomas"
            ]
          }
        ]
      }
    },
    {
      "fullUrl": "http://localhost:8080/r4/Organization/10",
      "resource": {
        "resourceType": "Organization",
        "id": "10",
        "meta": {
          "profile": [
            "http://fhir.ch/ig/ch-core/StructureDefinition/ch-core-organization-epr"
          ]
        },
        "text": {
          "status": "generated",
          "div": "<div xmlns=\"http://www.w3.org/1999/xhtml\">\n                  <p>Hausarzt\n                  </p>\n               </div>"
        },
        "identifier": [
          {
            "use": "official",
            "system": "urn:oid:2.51.1.3",
            "value": "7601003178999"
          }
        ],
        "name": "Hausarzt"
      }
    },
    {
      "fullUrl": "http://localhost:8080/r4/MedicationRequest/10",
      "resource": {
        "resourceType": "MedicationRequest",
        "id": "10",
        "meta": {
          "versionId": "1",
          "lastUpdated": "2019-05-29T14:58:58.181+02:00",
          "profile": [
            "http://chmed20af.emediplan.ch/fhir/StructureDefinition/chmed20af-pre-medicationrequest"
          ]
        },
        "text": {
          "status": "generated",
          "div": "<div xmlns=\"http://www.w3.org/1999/xhtml\">1 x ROACCUTAN Kaps 10 mg 30 Stk substitituion alllowed, 2x repeatable </div>"
        },
        "contained": [
          {
            "resourceType": "Medication",
            "id": "cont1",
            "code": {
              "coding": [
                {
                  "system": "urn:oid:2.51.1.1",
                  "code": "7680453070343",
                  "display": "ROACCUTAN Kaps 10 mg 30 Stk"
                }
              ],
              "text": "ROACCUTAN Kaps 10 mg 30 Stk"
            },
            "form": {
              "coding": [
                {
                  "system": "urn:oid:0.4.0.127.0.16.1.1.2.1",
                  "code": "10210000",
                  "display": "Capsule, hard"
                }
              ]
            },
            "ingredient": [
              {
                "itemCodeableConcept": {
                  "coding": [
                    {
                      "system": "http://snomed.info/sct",
                      "code": "387208003",
                      "display": "Isotretinoin (substance)"
                    }
                  ]
                },
                "strength": {
                  "numerator": {
                    "value": 10,
                    "unit": "mg"
                  },
                  "denominator": {
                    "value": 1
                  }
                }
              }
            ]
          }
        ],
        "status": "completed",
        "intent": "order",
        "medicationReference": {
          "reference": "#cont1"
        },
        "subject": {
          "reference": "Patient/7"
        },
        "note": [
          {
            "text": "-"
          }
        ],
        "dosageInstruction": [
          {
            "timing": {
              "repeat": {
                "boundsPeriod": {
                  "start": "2016-09-12",
                  "end": "2020-09-12"
                },
                "when": [
                  "PCM"
                ]
              }
            },
            "asNeededBoolean": true,
            "route": {
              "coding": [
                {
                  "system": "urn:oid:0.4.0.127.0.16.1.1.2.1",
                  "code": "20053000",
                  "display": "Oral use"
                }
              ]
            },
            "doseAndRate": [
              {
                "doseQuantity": {
                  "value": 1,
                  "unit": "Stk",
                  "system": "http://unitsofmeasure.org",
                  "code": "1"
                }
              }
            ]
          }
        ],
        "dispenseRequest": {
          "numberOfRepeatsAllowed": 2,
          "quantity": {
            "value": 1
          }
        },
        "substitution": {
          "allowedCodeableConcept": {
            "coding": [
              {
                "system": "http://terminology.hl7.org/CodeSystem/v3-substanceAdminSubstitution",
                "code": "E",
                "display": "equivalent"
              }
            ]
          }
        }
      }
    }
  ]
}