<?xml version="1.0" encoding="UTF-8"?>

<Bundle xmlns="http://hl7.org/fhir">
  <id value="A1-MedicationCard-Zocor"/>
  <meta>
    <lastUpdated value="2020-04-20T11:00:00+01:00"/>
    <profile value="http://chmed20af.emediplan.ch/fhir/StructureDefinition/chmed20af-card-bundle"/>
  </meta>
  <identifier>
    <system value="http://emediplan.ch/chmed20af/id"/>
    <value value="26d3dff7-ab05-4737-a49c-5eccd33595a0"/>
  </identifier>
  <type value="document"/>
  <timestamp value="2020-03-01T11:00:00+01:00"/>
  <entry>
    <fullUrl value="http://test.fhir.ch/r4/Composition/A1-CompZocor"/>
    <resource>
      <Composition>
        <id value="A1-CompZocor"/>
        <language value="de-CH"/>
        <text>
          <status value="generated"/><div xmlns="http://www.w3.org/1999/xhtml" xml:lang="de-CH" lang="de-CH"><p><b>Generated Narrative with Details</b></p><p><b>id</b>: A1-CompZocor</p><p><b>language</b>: de-CH</p><p><b>identifier</b>: 26d3dff7-ab05-4737-a49c-5eccd33595a0</p><p><b>status</b>: final</p><p><b>type</b>: Medication summary document (record artifact) <span style="background: LightGoldenRodYellow">(Details : {SNOMED CT code '721912009' = 'Medication summary document (record artifact)', given as 'Medication summary document (record artifact)'})</span></p><p><b>date</b>: Mar 1, 2020, 11:00:00 AM</p><p><b>author</b>: <a href="#backboneelement_HausarztDupont">Generated Summary: unknown resource entry</a></p><p><b>title</b>: Medikationsplan</p><p><b>confidentiality</b>: N</p><p><b>custodian</b>: <a href="#backboneelement_Custodian">Generated Summary: unknown resource entry</a></p></div>
        </text>
        <extension url="http://chmed20af.emediplan.ch/fhir/StructureDefinition/chmed20af-inputdocumentsource">
          <valueString value="Cara"/>
        </extension>
        <extension url="http://fhir.ch/ig/ch-core/StructureDefinition/ch-ext-epr-setid">
          <valueIdentifier>
            <system value="http://emediplan.ch/chmed20af/id"/>
            <value value="26d3dff7-ab05-4737-a49c-5eccd33595a0"/>
          </valueIdentifier>
        </extension>
        <extension url="http://fhir.ch/ig/ch-core/StructureDefinition/ch-ext-epr-versionnumber">
          <valueUnsignedInt value="1"/>
        </extension>
        <extension url="http://fhir.ch/ig/ch-core/StructureDefinition/ch-ext-epr-informationrecipient">
          <valueReference>
            <reference value="Patient/MonikaWegmuellerRecipient"/>
          </valueReference>
        </extension>
        <identifier>
          <system value="http://emediplan.ch/chmed20af/id"/>
          <value value="26d3dff7-ab05-4737-a49c-5eccd33595a0"/>
        </identifier>
        <status value="final"/>
        <type>
          <coding>
            <system value="http://snomed.info/sct"/>
            <code value="721912009"/>
            <display value="Medication summary document (record artifact)"/>
          </coding>
        </type>
        <subject>
          <reference value="Patient/MonikaWegmueller"/>
        </subject>
        <date value="2020-03-01T11:00:00+01:00"/>
        <author>
          <reference value="Practitioner/HausarztDupont"/>
        </author>
        <title value="Medikationsplan"/>
        <confidentiality value="N">
          <extension url="http://fhir.ch/ig/ch-core/StructureDefinition/ch-ext-epr-confidentialitycode">
            <valueCodeableConcept>
              <coding>
                <system value="http://snomed.info/sct"/>
                <code value="17621005"/>
                <display value="Normally accessible"/>
              </coding>
            </valueCodeableConcept>
          </extension>
        </confidentiality>
        <custodian>
          <reference value="Organization/Custodian"/>
        </custodian>
        <section>
          <title value="Aktuelle Medikation"/>
          <code>
            <coding>
              <system value="http://loinc.org"/>
              <code value="10160-0"/>
              <display value="History of medication use"/>
            </coding>
          </code>
          <text>
            <status value="additional"/><div xmlns="http://www.w3.org/1999/xhtml"> Aktuelle Medikation </div>
          </text>
          <entry>
            <reference value="MedicationStatement/A1-MedStatZocor"/>
          </entry>
        </section>
      </Composition>
    </resource>
  </entry>
  <entry>
    <fullUrl value="http://test.fhir.ch/r4/Patient/MonikaWegmueller"/>
    <resource>
      <Patient>
        <id value="MonikaWegmueller"/>
        <text>
          <status value="generated"/><div xmlns="http://www.w3.org/1999/xhtml"><p><b>Generated Narrative with Details</b></p><p><b>id</b>: MonikaWegmueller</p><p><b>identifier</b>: Medical record number = 11111111</p><p><b>name</b>: Monika Wegmüller </p><p><b>gender</b>: female</p><p><b>birthDate</b>: 1943-05-15</p><p><b>address</b>: Wiesenstr. 12 Zürich 8003 CH </p></div>
        </text>
        <identifier>
          <type>
            <coding>
              <system value="http://terminology.hl7.org/CodeSystem/v2-0203"/>
              <code value="MR"/>
            </coding>
          </type>
          <system value="urn:oid:2.999"/>
          <value value="11111111"/>
        </identifier>
        <name>
          <family value="Wegm&#xFC;ller"/>
          <given value="Monika"/>
        </name>
        <gender value="female"/>
        <birthDate value="1943-05-15"/>
        <address>
          <line value="Wiesenstr. 12"/>
          <city value="Z&#xFC;rich"/>
          <postalCode value="8003"/>
          <country value="CH"/>
        </address>
      </Patient>
    </resource>
  </entry>
  <entry>
    <fullUrl value="http://test.fhir.ch/r4/Practitioner/HausarztDupont"/>
    <resource>
      <Practitioner>
        <id value="HausarztDupont"/>
        <text>
          <status value="generated"/><div xmlns="http://www.w3.org/1999/xhtml"><p><b>Generated Narrative with Details</b></p><p><b>id</b>: HausarztDupont</p><p><b>identifier</b>: 7601000234466</p><p><b>name</b>: Hausarzt Dupont </p></div>
        </text>
        <identifier>
          <system value="urn:oid:2.51.1.3"/>
          <value value="7601000234466"/>
        </identifier>
        <name>
          <family value="Dupont"/>
          <given value="Hausarzt"/>
        </name>
      </Practitioner>
    </resource>
  </entry>
  <entry>
    <fullUrl value="http://test.fhir.ch/r4/Organization/Custodian"/>
    <resource>
      <Organization>
        <id value="Custodian"/>
        <text>
          <status value="generated"/><div xmlns="http://www.w3.org/1999/xhtml"><p><b>Generated Narrative with Details</b></p><p><b>id</b>: Custodian</p><p><b>identifier</b>: 7601000234466</p><p><b>name</b>: Hausarzt</p></div>
        </text>
        <identifier>
          <system value="urn:oid:2.51.1.3"/>
          <value value="7601000234466"/>
        </identifier>
        <name value="Hausarzt"/>
      </Organization>
    </resource>
  </entry>
  <entry>
    <fullUrl value="http://test.fhir.ch/r4/Patient/MonikaWegmuellerRecipient"/>
    <resource>
      <Patient>
        <id value="MonikaWegmuellerRecipient"/>
        <text>
          <status value="generated"/><div xmlns="http://www.w3.org/1999/xhtml"><p><b>Generated Narrative with Details</b></p><p><b>id</b>: MonikaWegmuellerRecipient</p><p><b>name</b>: Monika Wegmüller </p><p><b>address</b>: Wiesenstr. 12 Zürich 8003 CH </p></div>
        </text>
        <name>
          <family value="Wegm&#xFC;ller"/>
          <given value="Monika"/>
        </name>
        <address>
          <line value="Wiesenstr. 12"/>
          <city value="Z&#xFC;rich"/>
          <postalCode value="8003"/>
          <country value="CH"/>
        </address>
      </Patient>
    </resource>
  </entry>
  <entry>
    <fullUrl value="http://test.fhir.ch/r4/MedicationStatement/A1-MedStatZocor"/>
    <resource>
      <MedicationStatement>
        <id value="A1-MedStatZocor"/>
        <text>
          <status value="generated"/><div xmlns="http://www.w3.org/1999/xhtml"><p><b>Generated Narrative with Details</b></p><p><b>id</b>: A1-MedStatZocor</p><p><b>contained</b>: </p><p><b>status</b>: completed</p><p><b>category</b>: Kardiovaskuläres System <span style="background: LightGoldenRodYellow">(Details : {http://www.whocc.no/atc code 'C' = 'C', given as 'Kardiovaskuläres System'})</span></p><p><b>medication</b>: unknown resource contained</p><p><b>subject</b>: <a href="#backboneelement_MonikaWegmueller">Generated Summary: unknown resource entry</a></p><p><b>reasonCode</b>: Cholesterinsenker <span style="background: LightGoldenRodYellow">(Details )</span></p><p><b>dosage</b>: , </p></div>
        </text>
        <contained>
          <Medication>
            <id value="cont1"/>
            <code>
              <coding>
                <system value="urn:oid:2.51.1.1"/>
                <code value="7680497420616"/>
                <display value="ZOCOR Filmtabl 40 mg"/>
              </coding>
              <text value="ZOCOR Filmtabl 40 mg"/>
            </code>
            <form>
              <coding>
                <system value="urn:oid:0.4.0.127.0.16.1.1.2.1"/>
                <code value="10221000"/>
                <display value="Film-coated tablet"/>
              </coding>
            </form>
            <amount>
              <numerator>
                <value value="98"/>
              </numerator>
              <denominator>
                <value value="1"/>
              </denominator>
            </amount>
            <ingredient>
              <itemCodeableConcept>
                <coding>
                  <system value="http://snomed.info/sct"/>
                  <code value="387584000"/>
                  <display value="Simvastatin (substance)"/>
                </coding>
              </itemCodeableConcept>
              <strength>
                <numerator>
                  <value value="40"/>
                  <unit value="mg"/>
                </numerator>
                <denominator>
                  <value value="1"/>
                </denominator>
              </strength>
            </ingredient>
          </Medication>
        </contained>
        <status value="completed"/>
        <category>
          <coding>
            <system value="http://www.whocc.no/atc"/>
            <code value="C"/>
            <display value="Kardiovaskul&#xE4;res System"/>
          </coding>
        </category>
        <medicationReference>
          <reference value="#cont1"/>
        </medicationReference>
        <subject>
          <reference value="Patient/MonikaWegmueller"/>
        </subject>
        <reasonCode>
          <text value="Cholesterinsenker"/>
        </reasonCode>
        <dosage>
          <text value="1 Tablette abends"/>
        </dosage>
        <dosage>
          <timing>
            <repeat>
              <boundsPeriod>
                <start value="2020-03-01"/>
              </boundsPeriod>
              <when value="CV"/>
            </repeat>
          </timing>
          <route>
            <coding>
              <system value="urn:oid:0.4.0.127.0.16.1.1.2.1"/>
              <code value="20053000"/>
              <display value="Oral use"/>
            </coding>
          </route>
          <doseAndRate>
            <doseQuantity>
              <value value="1"/>
              <unit value="Tablette"/>
              <system value="http://unitsofmeasure.org"/>
              <code value="1"/>
            </doseQuantity>
          </doseAndRate>
        </dosage>
      </MedicationStatement>
    </resource>
  </entry>
</Bundle>