<?xml version="1.0" encoding="UTF-8"?>

<Bundle xmlns="http://hl7.org/fhir">
  <id value="26Doc-HepatiteA"/>
  <identifier>
    <system value="urn:ietf:rfc:3986"/>
    <value value="urn:uuid:3401332d-6012-443f-9690-9331adb23aab"/>
  </identifier>
  <type value="document"/>
  <timestamp value="2024-09-05T12:00:00+02:00"/>
  <entry>
    <fullUrl value="urn:uuid:9cbf31c0-eea5-4093-be88-edfd79b0f358"/>
    <resource>
      <Composition>
        <id value="9cbf31c0-eea5-4093-be88-edfd79b0f358"/>
        <language value="de-CH"/>
        <identifier>
          <system value="urn:ietf:rfc:3986"/>
          <value value="urn:uuid:3401332d-6012-443f-9690-9331adb23aab"/>
        </identifier>
        <status value="final"/>
        <type>
          <coding>
            <system value="http://snomed.info/sct"/>
            <version value="http://snomed.info/sct/2011000195101"/>
            <code value="4241000179101"/>
            <display value="Laborbericht"/>
          </coding>
          <coding>
            <system value="http://loinc.org"/>
            <code value="11502-2"/>
            <display value="Laboratory report"/>
          </coding>
        </type>
        <subject>
          <reference value="urn:uuid:830650ed-67d5-43f4-937d-a81d6a9664dc"/>
        </subject>
        <date value="2024-09-05T12:00:00+02:00"/>
        <author>
          <reference value="urn:uuid:9ee58e32-3ed0-49ab-9ba5-7a4aa8882a79"/>
        </author>
        <title value="Laborbericht vom 2.9.2024"/>
        <section>
          <title value="Analyseergebnisse der mikrobiologischen Untersuchung"/>
          <code>
            <coding>
              <system value="http://loinc.org"/>
              <code value="18725-2"/>
              <display value="Microbiology studies (set)"/>
            </coding>
          </code>
          <entry>
            <reference value="urn:uuid:88168d6a-6ea9-4683-96af-288279811539"/>
          </entry>
        </section>
      </Composition>
    </resource>
  </entry>
  <entry>
    <fullUrl value="urn:uuid:830650ed-67d5-43f4-937d-a81d6a9664dc"/>
    <resource>
      <Patient>
        <id value="830650ed-67d5-43f4-937d-a81d6a9664dc"/>
        <identifier>
          <system value="urn:oid:2.16.756.5.32"/>
          <value value="7561234567897"/>
        </identifier>
        <name>
          <family value="Dupont"/>
          <given value="Antoine"/>
        </name>
        <gender value="female"/>
        <birthDate value="1981-02-07"/>
        <address>
          <use value="home"/>
          <line value="rue de la république 10">
            <extension url="http://hl7.org/fhir/StructureDefinition/iso21090-ADXP-streetName">
              <valueString value="rue de la république"/>
            </extension>
            <extension url="http://hl7.org/fhir/StructureDefinition/iso21090-ADXP-houseNumber">
              <valueString value="10"/>
            </extension>
          </line>
          <city value="Carouge"/>
          <state value="GE"/>
          <postalCode value="1227"/>
          <country value="CH">
            <extension url="http://hl7.org/fhir/StructureDefinition/iso21090-SC-coding">
              <valueCoding>
                <system value="urn:iso:std:iso:3166"/>
                <code value="CH"/>
              </valueCoding>
            </extension>
          </country>
        </address>
      </Patient>
    </resource>
  </entry>
  <entry>
    <fullUrl value="urn:uuid:9ee58e32-3ed0-49ab-9ba5-7a4aa8882a79"/>
    <resource>
      <Organization>
        <id value="9ee58e32-3ed0-49ab-9ba5-7a4aa8882a79"/>
        <identifier>
          <system value="urn:oid:2.51.1.3"/>
          <value value="7601002331470"/>
        </identifier>
        <name value="SanLab"/>
      </Organization>
    </resource>
  </entry>
  <entry>
    <fullUrl value="urn:uuid:88168d6a-6ea9-4683-96af-288279811539"/>
    <resource>
      <Observation>
        <id value="88168d6a-6ea9-4683-96af-288279811539"/>
        <status value="final"/>
        <category>
          <coding>
            <system value="http://terminology.hl7.org/CodeSystem/observation-category"/>
            <code value="laboratory"/>
            <display value="Laboratory"/>
          </coding>
        </category>
        <code>
          <coding>
            <system value="http://loinc.org"/>
            <code value="22314-9"/>
          </coding>
        </code>
        <subject>
          <reference value="urn:uuid:830650ed-67d5-43f4-937d-a81d6a9664dc"/>
        </subject>
        <effectiveDateTime value="2024-07-25T14:20:00+02:00"/>
        <performer>
          <reference value="urn:uuid:9ee58e32-3ed0-49ab-9ba5-7a4aa8882a79"/>
        </performer>
        <dataAbsentReason>
          <coding>
            <system value="http://terminology.hl7.org/CodeSystem/data-absent-reason"/>
            <code value="not-applicable"/>
          </coding>
        </dataAbsentReason>
        <interpretation>
          <coding>
            <system value="http://terminology.hl7.org/CodeSystem/v3-ObservationInterpretation"/>
            <code value="POS"/>
            <display value="Positive"/>
          </coding>
        </interpretation>
        <specimen>
          <reference value="urn:uuid:19383192-29f5-4a23-95a5-149f78d4efed"/>
        </specimen>
      </Observation>
    </resource>
  </entry>
  <entry>
    <fullUrl value="urn:uuid:e2bc9e91-dfbe-4255-8c3b-c7ba0557a17b"/>
    <resource>
      <Practitioner>
        <id value="e2bc9e91-dfbe-4255-8c3b-c7ba0557a17b"/>
        <identifier>
          <system value="urn:oid:2.51.1.3"/>
          <value value="7601000000514"/>
        </identifier>
        <name>
          <family value="Hauser"/>
          <given value="Peter"/>
        </name>
        <telecom>
          <system value="phone"/>
          <value value="+41 79 222 33 44"/>
        </telecom>
        <telecom>
          <system value="email"/>
          <value value="peter.hauser@hauserpraxis.ch"/>
        </telecom>
      </Practitioner>
    </resource>
  </entry>
  <entry>
    <fullUrl value="urn:uuid:4dcfb2fd-9fe4-48b2-a719-59525186a64f"/>
    <resource>
      <Organization>
        <id value="4dcfb2fd-9fe4-48b2-a719-59525186a64f"/>
        <identifier>
          <system value="urn:oid:2.16.756.5.45"/>
          <value value="A74966168"/>
        </identifier>
        <name value="Praxis Dr. Hauser"/>
        <address>
          <line value="Hauptstrasse 10">
            <extension url="http://hl7.org/fhir/StructureDefinition/iso21090-ADXP-streetName">
              <valueString value="Hauptstrasse"/>
            </extension>
            <extension url="http://hl7.org/fhir/StructureDefinition/iso21090-ADXP-houseNumber">
              <valueString value="10"/>
            </extension>
          </line>
          <city value="Solothurn"/>
          <postalCode value="4500"/>
        </address>
      </Organization>
    </resource>
  </entry>
  <entry>
    <fullUrl value="urn:uuid:050ef776-0e95-4070-9989-f40e712d9cb1"/>
    <resource>
      <PractitionerRole>
        <id value="050ef776-0e95-4070-9989-f40e712d9cb1"/>
        <practitioner>
          <reference value="urn:uuid:e2bc9e91-dfbe-4255-8c3b-c7ba0557a17b"/>
        </practitioner>
        <organization>
          <reference value="urn:uuid:4dcfb2fd-9fe4-48b2-a719-59525186a64f"/>
        </organization>
      </PractitionerRole>
    </resource>
  </entry>
  <entry>
    <fullUrl value="urn:uuid:19383192-29f5-4a23-95a5-149f78d4efed"/>
    <resource>
      <Specimen>
        <id value="19383192-29f5-4a23-95a5-149f78d4efed"/>
        <type>
          <text value="Material declared by Observation.code or non-mandatory"/>
        </type>
        <subject>
          <reference value="urn:uuid:830650ed-67d5-43f4-937d-a81d6a9664dc"/>
        </subject>
        <collection>
          <collectedDateTime value="2024-08-22T14:20:00+02:00"/>
        </collection>
      </Specimen>
    </resource>
  </entry>
  <entry>
    <fullUrl value="urn:uuid:c2b11250-ca1b-4a52-84f5-1d7e4620686d"/>
    <resource>
      <ServiceRequest>
        <id value="c2b11250-ca1b-4a52-84f5-1d7e4620686d"/>
        <identifier>
          <value value="26500923622"/>
        </identifier>
        <status value="completed"/>
        <intent value="order"/>
        <code>
          <coding>
            <system value="http://loinc.org"/>
            <code value="22314-9"/>
          </coding>
        </code>
        <subject>
          <reference value="urn:uuid:830650ed-67d5-43f4-937d-a81d6a9664dc"/>
        </subject>
        <requester>
          <reference value="urn:uuid:050ef776-0e95-4070-9989-f40e712d9cb1"/>
        </requester>
        <specimen>
          <reference value="urn:uuid:19383192-29f5-4a23-95a5-149f78d4efed"/>
        </specimen>
      </ServiceRequest>
    </resource>
  </entry>
  <entry>
    <fullUrl value="urn:uuid:5a34f3ae-3f19-4dfe-9344-444e183a9299"/>
    <resource>
      <DiagnosticReport>
        <id value="5a34f3ae-3f19-4dfe-9344-444e183a9299"/>
        <extension url="http://hl7.org/fhir/5.0/StructureDefinition/extension-DiagnosticReport.composition">
          <valueReference>
            <reference value="urn:uuid:9cbf31c0-eea5-4093-be88-edfd79b0f358"/>
          </valueReference>
        </extension>
        <identifier>
          <system value="urn:ietf:rfc:3986"/>
          <value value="urn:uuid:3401332d-6012-443f-9690-9331adb23aab"/>
        </identifier>
        <basedOn>
          <reference value="urn:uuid:c2b11250-ca1b-4a52-84f5-1d7e4620686d"/>
        </basedOn>
        <status value="final"/>
        <code>
          <coding>
            <system value="http://loinc.org"/>
            <code value="11502-2"/>
            <display value="Laboratory report"/>
          </coding>
        </code>
        <subject>
          <reference value="urn:uuid:830650ed-67d5-43f4-937d-a81d6a9664dc"/>
        </subject>
        <performer>
          <reference value="urn:uuid:9ee58e32-3ed0-49ab-9ba5-7a4aa8882a79"/>
        </performer>
        <specimen>
          <reference value="urn:uuid:19383192-29f5-4a23-95a5-149f78d4efed"/>
        </specimen>
        <result>
          <reference value="urn:uuid:88168d6a-6ea9-4683-96af-288279811539"/>
        </result>
      </DiagnosticReport>
    </resource>
  </entry>
</Bundle>