<?xml version="1.0" encoding="UTF-8"?>

<Bundle xmlns="http://hl7.org/fhir">
  <id value="34Doc-Brucella"/>
  <identifier>
    <system value="urn:ietf:rfc:3986"/>
    <value value="urn:uuid:ac01252d-6012-443f-9690-9291adb23433"/>
  </identifier>
  <type value="document"/>
  <timestamp value="2024-10-14T11:00:00+02:00"/>
  <entry>
    <fullUrl value="urn:uuid:9e7009a4-a28c-423a-98a1-98d70ab0901c"/>
    <resource>
      <Composition>
        <id value="9e7009a4-a28c-423a-98a1-98d70ab0901c"/>
        <language value="de-CH"/>
        <identifier>
          <system value="urn:ietf:rfc:3986"/>
          <value value="urn:uuid:ac01252d-6012-443f-9690-9291adb23433"/>
        </identifier>
        <status value="final"/>
        <type>
          <coding>
            <system value="http://snomed.info/sct"/>
            <version value="http://snomed.info/sct/2011000195101"/>
            <code value="4241000179101"/>
            <display value="Laborbericht"/>
          </coding>
          <coding>
            <system value="http://loinc.org"/>
            <code value="11502-2"/>
            <display value="Laboratory report"/>
          </coding>
        </type>
        <subject>
          <reference value="urn:uuid:05d4086f-5dcc-44de-8fa8-253ff1550c60"/>
        </subject>
        <date value="2024-10-14T11:00:00+02:00"/>
        <author>
          <reference value="urn:uuid:41196c21-2d76-4a97-84fb-43d986b41aee"/>
        </author>
        <title value="Laborbericht vom 14.10.92024"/>
        <section>
          <title value="Analyseergebnisse der mikrobiologischen Untersuchung"/>
          <code>
            <coding>
              <system value="http://loinc.org"/>
              <code value="18725-2"/>
              <display value="Microbiology studies (set)"/>
            </coding>
          </code>
          <entry>
            <reference value="urn:uuid:0290618b-29e2-40fa-a422-d35595f06112"/>
          </entry>
        </section>
      </Composition>
    </resource>
  </entry>
  <entry>
    <fullUrl value="urn:uuid:05d4086f-5dcc-44de-8fa8-253ff1550c60"/>
    <resource>
      <Patient>
        <id value="05d4086f-5dcc-44de-8fa8-253ff1550c60"/>
        <identifier>
          <system value="urn:oid:2.16.756.5.32"/>
          <value value="7562295883070"/>
        </identifier>
        <name>
          <family value="M"/>
          <given value="D"/>
        </name>
        <gender value="male"/>
        <birthDate value="1960-08-22"/>
        <address>
          <use value="home"/>
          <city value="Bern"/>
          <state value="BE"/>
          <postalCode value="3000"/>
          <country value="CH">
            <extension url="http://hl7.org/fhir/StructureDefinition/iso21090-SC-coding">
              <valueCoding>
                <system value="urn:iso:std:iso:3166"/>
                <code value="CH"/>
              </valueCoding>
            </extension>
          </country>
        </address>
      </Patient>
    </resource>
  </entry>
  <entry>
    <fullUrl value="urn:uuid:41196c21-2d76-4a97-84fb-43d986b41aee"/>
    <resource>
      <Organization>
        <id value="41196c21-2d76-4a97-84fb-43d986b41aee"/>
        <identifier>
          <system value="urn:oid:2.51.1.3"/>
          <value value="7601002331470"/>
        </identifier>
        <name value="SanLab"/>
      </Organization>
    </resource>
  </entry>
  <entry>
    <fullUrl value="urn:uuid:0290618b-29e2-40fa-a422-d35595f06112"/>
    <resource>
      <Observation>
        <id value="0290618b-29e2-40fa-a422-d35595f06112"/>
        <status value="final"/>
        <category>
          <coding>
            <system value="http://terminology.hl7.org/CodeSystem/observation-category"/>
            <code value="laboratory"/>
            <display value="Laboratory"/>
          </coding>
        </category>
        <code>
          <coding>
            <system value="http://loinc.org"/>
            <code value="101802-7"/>
          </coding>
        </code>
        <subject>
          <reference value="urn:uuid:05d4086f-5dcc-44de-8fa8-253ff1550c60"/>
        </subject>
        <effectiveDateTime value="2024-10-12T09:15:00+02:00"/>
        <performer>
          <reference value="urn:uuid:41196c21-2d76-4a97-84fb-43d986b41aee"/>
        </performer>
        <dataAbsentReason>
          <coding>
            <system value="http://terminology.hl7.org/CodeSystem/data-absent-reason"/>
            <code value="not-applicable"/>
          </coding>
        </dataAbsentReason>
        <interpretation>
          <coding>
            <system value="http://terminology.hl7.org/CodeSystem/v3-ObservationInterpretation"/>
            <code value="POS"/>
            <display value="Positive"/>
          </coding>
        </interpretation>
        <specimen>
          <reference value="urn:uuid:37c8bc0f-3d85-44a5-a4a3-498fafd2abf7"/>
        </specimen>
      </Observation>
    </resource>
  </entry>
  <entry>
    <fullUrl value="urn:uuid:039c5a56-4aa4-4ea0-8b1c-a7b2872df0c1"/>
    <resource>
      <Practitioner>
        <id value="039c5a56-4aa4-4ea0-8b1c-a7b2872df0c1"/>
        <identifier>
          <system value="urn:oid:2.51.1.3"/>
          <value value="7601000234438"/>
        </identifier>
        <name>
          <family value="Giacometti"/>
          <given value="Monika"/>
        </name>
        <telecom>
          <system value="phone"/>
          <value value="+41 79 111 44 55"/>
        </telecom>
        <telecom>
          <system value="email"/>
          <value value="m.giacometti@ks-abc.ch"/>
        </telecom>
      </Practitioner>
    </resource>
  </entry>
  <entry>
    <fullUrl value="urn:uuid:5fe5b34e-f702-40d8-a05e-f6b7cfd46423"/>
    <resource>
      <Organization>
        <id value="5fe5b34e-f702-40d8-a05e-f6b7cfd46423"/>
        <identifier>
          <system value="urn:oid:2.16.756.5.45"/>
          <value value="A99684215"/>
        </identifier>
        <name value="Kantonsspital ABC"/>
        <address>
          <line value="Aortastrasse 22">
            <extension url="http://hl7.org/fhir/StructureDefinition/iso21090-ADXP-streetName">
              <valueString value="Aortastrasse"/>
            </extension>
            <extension url="http://hl7.org/fhir/StructureDefinition/iso21090-ADXP-houseNumber">
              <valueString value="22"/>
            </extension>
            <extension url="http://hl7.org/fhir/StructureDefinition/iso21090-ADXP-postBox">
              <valueString value="Postfach 18"/>
            </extension>
          </line>
          <city value="Bern"/>
          <postalCode value="3000"/>
        </address>
      </Organization>
    </resource>
  </entry>
  <entry>
    <fullUrl value="urn:uuid:90595985-fa89-4eb9-9c40-14e1b11741e0"/>
    <resource>
      <PractitionerRole>
        <id value="90595985-fa89-4eb9-9c40-14e1b11741e0"/>
        <practitioner>
          <reference value="urn:uuid:039c5a56-4aa4-4ea0-8b1c-a7b2872df0c1"/>
        </practitioner>
        <organization>
          <reference value="urn:uuid:5fe5b34e-f702-40d8-a05e-f6b7cfd46423"/>
        </organization>
      </PractitionerRole>
    </resource>
  </entry>
  <entry>
    <fullUrl value="urn:uuid:37c8bc0f-3d85-44a5-a4a3-498fafd2abf7"/>
    <resource>
      <Specimen>
        <id value="37c8bc0f-3d85-44a5-a4a3-498fafd2abf7"/>
        <type>
          <text value="Material declared by Observation.code or non-mandatory"/>
        </type>
        <subject>
          <reference value="urn:uuid:05d4086f-5dcc-44de-8fa8-253ff1550c60"/>
        </subject>
        <collection>
          <collectedDateTime value="2024-10-10T09:15:00+02:00"/>
        </collection>
      </Specimen>
    </resource>
  </entry>
  <entry>
    <fullUrl value="urn:uuid:483a79d7-cc90-40a2-aad9-a418b2ffde16"/>
    <resource>
      <ServiceRequest>
        <id value="483a79d7-cc90-40a2-aad9-a418b2ffde16"/>
        <identifier>
          <value value="50002755"/>
        </identifier>
        <status value="completed"/>
        <intent value="order"/>
        <code>
          <coding>
            <system value="http://loinc.org"/>
            <code value="101802-7"/>
          </coding>
        </code>
        <subject>
          <reference value="urn:uuid:05d4086f-5dcc-44de-8fa8-253ff1550c60"/>
        </subject>
        <requester>
          <reference value="urn:uuid:90595985-fa89-4eb9-9c40-14e1b11741e0"/>
        </requester>
        <specimen>
          <reference value="urn:uuid:37c8bc0f-3d85-44a5-a4a3-498fafd2abf7"/>
        </specimen>
      </ServiceRequest>
    </resource>
  </entry>
  <entry>
    <fullUrl value="urn:uuid:3dc4969f-9932-4b81-bd8a-cc928ced8054"/>
    <resource>
      <DiagnosticReport>
        <id value="3dc4969f-9932-4b81-bd8a-cc928ced8054"/>
        <extension url="http://hl7.org/fhir/5.0/StructureDefinition/extension-DiagnosticReport.composition">
          <valueReference>
            <reference value="urn:uuid:9e7009a4-a28c-423a-98a1-98d70ab0901c"/>
          </valueReference>
        </extension>
        <identifier>
          <system value="urn:ietf:rfc:3986"/>
          <value value="urn:uuid:ac01252d-6012-443f-9690-9291adb23433"/>
        </identifier>
        <basedOn>
          <reference value="urn:uuid:483a79d7-cc90-40a2-aad9-a418b2ffde16"/>
        </basedOn>
        <status value="final"/>
        <code>
          <coding>
            <system value="http://loinc.org"/>
            <code value="11502-2"/>
            <display value="Laboratory report"/>
          </coding>
        </code>
        <subject>
          <reference value="urn:uuid:05d4086f-5dcc-44de-8fa8-253ff1550c60"/>
        </subject>
        <performer>
          <reference value="urn:uuid:41196c21-2d76-4a97-84fb-43d986b41aee"/>
        </performer>
        <specimen>
          <reference value="urn:uuid:37c8bc0f-3d85-44a5-a4a3-498fafd2abf7"/>
        </specimen>
        <result>
          <reference value="urn:uuid:0290618b-29e2-40fa-a422-d35595f06112"/>
        </result>
      </DiagnosticReport>
    </resource>
  </entry>
</Bundle>