<?xml version="1.0" encoding="UTF-8"?>

<Bundle xmlns="http://hl7.org/fhir">
  <id value="36Doc-Salmonella-paratyphi"/>
  <identifier>
    <system value="urn:ietf:rfc:3986"/>
    <value value="urn:uuid:6401332d-6012-443f-9690-9331adb23aab"/>
  </identifier>
  <type value="document"/>
  <timestamp value="2024-09-05T12:00:00+02:00"/>
  <entry>
    <fullUrl value="urn:uuid:aaf88229-e545-43e1-8251-e6bedfe91f69"/>
    <resource>
      <Composition>
        <id value="aaf88229-e545-43e1-8251-e6bedfe91f69"/>
        <language value="de-CH"/>
        <identifier>
          <system value="urn:ietf:rfc:3986"/>
          <value value="urn:uuid:6401332d-6012-443f-9690-9331adb23aab"/>
        </identifier>
        <status value="final"/>
        <type>
          <coding>
            <system value="http://snomed.info/sct"/>
            <version value="http://snomed.info/sct/2011000195101"/>
            <code value="4241000179101"/>
            <display value="Laborbericht"/>
          </coding>
          <coding>
            <system value="http://loinc.org"/>
            <code value="11502-2"/>
            <display value="Laboratory report"/>
          </coding>
        </type>
        <subject>
          <reference value="urn:uuid:55643720-334e-4aac-a8dc-d0fc279055e0"/>
        </subject>
        <date value="2024-09-05T12:00:00+02:00"/>
        <author>
          <reference value="urn:uuid:052aeb79-3648-44b2-8868-c2317759d49e"/>
        </author>
        <title value="Laborbericht vom 2.9.2024"/>
        <section>
          <title value="Analyseergebnisse der mikrobiologischen Untersuchung"/>
          <code>
            <coding>
              <system value="http://loinc.org"/>
              <code value="18725-2"/>
              <display value="Microbiology studies (set)"/>
            </coding>
          </code>
          <entry>
            <reference value="urn:uuid:e097cea4-b970-498d-bd87-b0ee3f5c2bb3"/>
          </entry>
        </section>
      </Composition>
    </resource>
  </entry>
  <entry>
    <fullUrl value="urn:uuid:55643720-334e-4aac-a8dc-d0fc279055e0"/>
    <resource>
      <Patient>
        <id value="55643720-334e-4aac-a8dc-d0fc279055e0"/>
        <identifier>
          <system value="urn:oid:2.16.756.5.32"/>
          <value value="7561234567897"/>
        </identifier>
        <name>
          <family value="Dupont"/>
          <given value="Antoine"/>
        </name>
        <gender value="female"/>
        <birthDate value="1981-02-07"/>
        <address>
          <use value="home"/>
          <line value="rue de la république 10">
            <extension url="http://hl7.org/fhir/StructureDefinition/iso21090-ADXP-streetName">
              <valueString value="rue de la république"/>
            </extension>
            <extension url="http://hl7.org/fhir/StructureDefinition/iso21090-ADXP-houseNumber">
              <valueString value="10"/>
            </extension>
          </line>
          <city value="Carouge"/>
          <state value="GE"/>
          <postalCode value="1227"/>
          <country value="CH">
            <extension url="http://hl7.org/fhir/StructureDefinition/iso21090-SC-coding">
              <valueCoding>
                <system value="urn:iso:std:iso:3166"/>
                <code value="CH"/>
              </valueCoding>
            </extension>
          </country>
        </address>
      </Patient>
    </resource>
  </entry>
  <entry>
    <fullUrl value="urn:uuid:052aeb79-3648-44b2-8868-c2317759d49e"/>
    <resource>
      <Organization>
        <id value="052aeb79-3648-44b2-8868-c2317759d49e"/>
        <identifier>
          <system value="urn:oid:2.51.1.3"/>
          <value value="7601002331470"/>
        </identifier>
        <name value="SanLab"/>
      </Organization>
    </resource>
  </entry>
  <entry>
    <fullUrl value="urn:uuid:e097cea4-b970-498d-bd87-b0ee3f5c2bb3"/>
    <resource>
      <Observation>
        <id value="e097cea4-b970-498d-bd87-b0ee3f5c2bb3"/>
        <status value="final"/>
        <category>
          <coding>
            <system value="http://terminology.hl7.org/CodeSystem/observation-category"/>
            <code value="laboratory"/>
            <display value="Laboratory"/>
          </coding>
        </category>
        <code>
          <coding>
            <system value="http://loinc.org"/>
            <code value="82301-3"/>
          </coding>
        </code>
        <subject>
          <reference value="urn:uuid:55643720-334e-4aac-a8dc-d0fc279055e0"/>
        </subject>
        <effectiveDateTime value="2024-08-28T14:20:00+02:00"/>
        <performer>
          <reference value="urn:uuid:052aeb79-3648-44b2-8868-c2317759d49e"/>
        </performer>
        <valueCodeableConcept>
          <coding>
            <system value="http://snomed.info/sct"/>
            <code value="79128009"/>
          </coding>
        </valueCodeableConcept>
        <interpretation>
          <coding>
            <system value="http://terminology.hl7.org/CodeSystem/v3-ObservationInterpretation"/>
            <code value="POS"/>
            <display value="Positive"/>
          </coding>
        </interpretation>
        <specimen>
          <reference value="urn:uuid:e0fba1ec-be0b-4b24-b9a2-c8f094cb30c6"/>
        </specimen>
      </Observation>
    </resource>
  </entry>
  <entry>
    <fullUrl value="urn:uuid:4859fb3a-1879-401b-9096-e0c2d7e92b45"/>
    <resource>
      <Practitioner>
        <id value="4859fb3a-1879-401b-9096-e0c2d7e92b45"/>
        <identifier>
          <system value="urn:oid:2.51.1.3"/>
          <value value="7601000000514"/>
        </identifier>
        <name>
          <family value="Hauser"/>
          <given value="Peter"/>
        </name>
        <telecom>
          <system value="phone"/>
          <value value="+41 79 222 33 44"/>
        </telecom>
        <telecom>
          <system value="email"/>
          <value value="peter.hauser@hauserpraxis.ch"/>
        </telecom>
      </Practitioner>
    </resource>
  </entry>
  <entry>
    <fullUrl value="urn:uuid:86a1a34a-e430-452b-9805-c51369575a2c"/>
    <resource>
      <Organization>
        <id value="86a1a34a-e430-452b-9805-c51369575a2c"/>
        <identifier>
          <system value="urn:oid:2.16.756.5.45"/>
          <value value="A74966168"/>
        </identifier>
        <name value="Praxis Dr. Hauser"/>
        <address>
          <line value="Hauptstrasse 10">
            <extension url="http://hl7.org/fhir/StructureDefinition/iso21090-ADXP-streetName">
              <valueString value="Hauptstrasse"/>
            </extension>
            <extension url="http://hl7.org/fhir/StructureDefinition/iso21090-ADXP-houseNumber">
              <valueString value="10"/>
            </extension>
          </line>
          <city value="Solothurn"/>
          <postalCode value="4500"/>
        </address>
      </Organization>
    </resource>
  </entry>
  <entry>
    <fullUrl value="urn:uuid:899fb529-21ff-48c6-8dfc-30a01ddc8c4d"/>
    <resource>
      <PractitionerRole>
        <id value="899fb529-21ff-48c6-8dfc-30a01ddc8c4d"/>
        <practitioner>
          <reference value="urn:uuid:4859fb3a-1879-401b-9096-e0c2d7e92b45"/>
        </practitioner>
        <organization>
          <reference value="urn:uuid:86a1a34a-e430-452b-9805-c51369575a2c"/>
        </organization>
      </PractitionerRole>
    </resource>
  </entry>
  <entry>
    <fullUrl value="urn:uuid:e0fba1ec-be0b-4b24-b9a2-c8f094cb30c6"/>
    <resource>
      <Specimen>
        <id value="e0fba1ec-be0b-4b24-b9a2-c8f094cb30c6"/>
        <type>
          <text value="Material declared by Observation.code or non-mandatory"/>
        </type>
        <subject>
          <reference value="urn:uuid:55643720-334e-4aac-a8dc-d0fc279055e0"/>
        </subject>
        <collection>
          <collectedDateTime value="2024-08-26T14:20:00+02:00"/>
        </collection>
      </Specimen>
    </resource>
  </entry>
  <entry>
    <fullUrl value="urn:uuid:1a0fb673-15e6-4357-84a3-7ee775674e7b"/>
    <resource>
      <ServiceRequest>
        <id value="1a0fb673-15e6-4357-84a3-7ee775674e7b"/>
        <identifier>
          <value value="26500923622"/>
        </identifier>
        <status value="completed"/>
        <intent value="order"/>
        <code>
          <coding>
            <system value="http://loinc.org"/>
            <code value="82301-3"/>
          </coding>
        </code>
        <subject>
          <reference value="urn:uuid:55643720-334e-4aac-a8dc-d0fc279055e0"/>
        </subject>
        <requester>
          <reference value="urn:uuid:899fb529-21ff-48c6-8dfc-30a01ddc8c4d"/>
        </requester>
        <specimen>
          <reference value="urn:uuid:e0fba1ec-be0b-4b24-b9a2-c8f094cb30c6"/>
        </specimen>
      </ServiceRequest>
    </resource>
  </entry>
  <entry>
    <fullUrl value="urn:uuid:3e71aeec-d07e-4ad2-a67c-26a02d41b9a5"/>
    <resource>
      <DiagnosticReport>
        <id value="3e71aeec-d07e-4ad2-a67c-26a02d41b9a5"/>
        <extension url="http://hl7.org/fhir/5.0/StructureDefinition/extension-DiagnosticReport.composition">
          <valueReference>
            <reference value="urn:uuid:aaf88229-e545-43e1-8251-e6bedfe91f69"/>
          </valueReference>
        </extension>
        <identifier>
          <system value="urn:ietf:rfc:3986"/>
          <value value="urn:uuid:6401332d-6012-443f-9690-9331adb23aab"/>
        </identifier>
        <basedOn>
          <reference value="urn:uuid:1a0fb673-15e6-4357-84a3-7ee775674e7b"/>
        </basedOn>
        <status value="final"/>
        <code>
          <coding>
            <system value="http://loinc.org"/>
            <code value="11502-2"/>
            <display value="Laboratory report"/>
          </coding>
        </code>
        <subject>
          <reference value="urn:uuid:55643720-334e-4aac-a8dc-d0fc279055e0"/>
        </subject>
        <performer>
          <reference value="urn:uuid:052aeb79-3648-44b2-8868-c2317759d49e"/>
        </performer>
        <specimen>
          <reference value="urn:uuid:e0fba1ec-be0b-4b24-b9a2-c8f094cb30c6"/>
        </specimen>
        <result>
          <reference value="urn:uuid:e097cea4-b970-498d-bd87-b0ee3f5c2bb3"/>
        </result>
      </DiagnosticReport>
    </resource>
  </entry>
</Bundle>