<?xml version="1.0" encoding="UTF-8"?>

<Bundle xmlns="http://hl7.org/fhir">
  <id value="48Doc-Mpox-Clade"/>
  <identifier>
    <system value="urn:ietf:rfc:3986"/>
    <value value="urn:uuid:54013a2d-6012-443f-9a90-6331adb23aab"/>
  </identifier>
  <type value="document"/>
  <timestamp value="2024-10-20T12:00:00+02:00"/>
  <entry>
    <fullUrl value="urn:uuid:a1532634-c897-4fbc-ada2-f6ee90f07fc4"/>
    <resource>
      <Composition>
        <id value="a1532634-c897-4fbc-ada2-f6ee90f07fc4"/>
        <language value="de-CH"/>
        <identifier>
          <system value="urn:ietf:rfc:3986"/>
          <value value="urn:uuid:54013a2d-6012-443f-9a90-6331adb23aab"/>
        </identifier>
        <status value="final"/>
        <type>
          <coding>
            <system value="http://snomed.info/sct"/>
            <version value="http://snomed.info/sct/2011000195101"/>
            <code value="4241000179101"/>
            <display value="Laborbericht"/>
          </coding>
          <coding>
            <system value="http://loinc.org"/>
            <code value="11502-2"/>
            <display value="Laboratory report"/>
          </coding>
        </type>
        <subject>
          <reference value="urn:uuid:92a1c608-7b87-4e3d-a387-1730f8809317"/>
        </subject>
        <date value="2024-10-20T12:00:00+02:00"/>
        <author>
          <reference value="urn:uuid:38bcf86c-d27b-41e8-a2c2-9abed00c0890"/>
        </author>
        <title value="Laborbericht vom 20.10.2024"/>
        <section>
          <title value="Analyseergebnisse der mikrobiologischen Untersuchung"/>
          <code>
            <coding>
              <system value="http://loinc.org"/>
              <code value="18725-2"/>
              <display value="Microbiology studies (set)"/>
            </coding>
          </code>
          <entry>
            <reference value="urn:uuid:be59d166-6536-4a36-95d2-b5ca41a636ef"/>
          </entry>
        </section>
      </Composition>
    </resource>
  </entry>
  <entry>
    <fullUrl value="urn:uuid:92a1c608-7b87-4e3d-a387-1730f8809317"/>
    <resource>
      <Patient>
        <id value="92a1c608-7b87-4e3d-a387-1730f8809317"/>
        <identifier>
          <system value="urn:oid:2.16.756.5.32"/>
          <value value="7561234567897"/>
        </identifier>
        <name>
          <family value="Dupont"/>
          <given value="Antoine"/>
        </name>
        <gender value="female"/>
        <birthDate value="1981-02-07"/>
        <address>
          <use value="home"/>
          <line value="rue de la république 10">
            <extension url="http://hl7.org/fhir/StructureDefinition/iso21090-ADXP-streetName">
              <valueString value="rue de la république"/>
            </extension>
            <extension url="http://hl7.org/fhir/StructureDefinition/iso21090-ADXP-houseNumber">
              <valueString value="10"/>
            </extension>
          </line>
          <city value="Carouge"/>
          <state value="GE"/>
          <postalCode value="1227"/>
          <country value="CH">
            <extension url="http://hl7.org/fhir/StructureDefinition/iso21090-SC-coding">
              <valueCoding>
                <system value="urn:iso:std:iso:3166"/>
                <code value="CH"/>
              </valueCoding>
            </extension>
          </country>
        </address>
      </Patient>
    </resource>
  </entry>
  <entry>
    <fullUrl value="urn:uuid:38bcf86c-d27b-41e8-a2c2-9abed00c0890"/>
    <resource>
      <Organization>
        <id value="38bcf86c-d27b-41e8-a2c2-9abed00c0890"/>
        <identifier>
          <system value="urn:oid:2.51.1.3"/>
          <value value="7601002331470"/>
        </identifier>
        <name value="SanLab"/>
      </Organization>
    </resource>
  </entry>
  <entry>
    <fullUrl value="urn:uuid:be59d166-6536-4a36-95d2-b5ca41a636ef"/>
    <resource>
      <Observation>
        <id value="be59d166-6536-4a36-95d2-b5ca41a636ef"/>
        <status value="final"/>
        <category>
          <coding>
            <system value="http://terminology.hl7.org/CodeSystem/observation-category"/>
            <code value="laboratory"/>
            <display value="Laboratory"/>
          </coding>
        </category>
        <code>
          <coding>
            <system value="http://loinc.org"/>
            <code value="101003-2"/>
          </coding>
        </code>
        <subject>
          <reference value="urn:uuid:92a1c608-7b87-4e3d-a387-1730f8809317"/>
        </subject>
        <effectiveDateTime value="2024-10-19T14:20:00+02:00"/>
        <performer>
          <reference value="urn:uuid:38bcf86c-d27b-41e8-a2c2-9abed00c0890"/>
        </performer>
        <valueCodeableConcept>
          <coding>
            <system value="http://snomed.info/sct"/>
            <code value="258368005"/>
            <display value="Group 1B (qualifier value)"/>
          </coding>
        </valueCodeableConcept>
        <interpretation>
          <coding>
            <system value="http://terminology.hl7.org/CodeSystem/v3-ObservationInterpretation"/>
            <code value="POS"/>
            <display value="Positive"/>
          </coding>
        </interpretation>
        <specimen>
          <reference value="urn:uuid:ed66f160-19cf-459b-96b5-3f96f4fded61"/>
        </specimen>
      </Observation>
    </resource>
  </entry>
  <entry>
    <fullUrl value="urn:uuid:f29fc9f3-d470-4a67-b4c2-b20600402e5d"/>
    <resource>
      <Practitioner>
        <id value="f29fc9f3-d470-4a67-b4c2-b20600402e5d"/>
        <identifier>
          <system value="urn:oid:2.51.1.3"/>
          <value value="7601000000514"/>
        </identifier>
        <name>
          <family value="Hauser"/>
          <given value="Peter"/>
        </name>
        <telecom>
          <system value="phone"/>
          <value value="+41 79 222 33 44"/>
        </telecom>
        <telecom>
          <system value="email"/>
          <value value="peter.hauser@hauserpraxis.ch"/>
        </telecom>
      </Practitioner>
    </resource>
  </entry>
  <entry>
    <fullUrl value="urn:uuid:d7b4c797-4974-463e-bc3a-65cb68cedf3b"/>
    <resource>
      <Organization>
        <id value="d7b4c797-4974-463e-bc3a-65cb68cedf3b"/>
        <identifier>
          <system value="urn:oid:2.16.756.5.45"/>
          <value value="A74966168"/>
        </identifier>
        <name value="Praxis Dr. Hauser"/>
        <address>
          <line value="Hauptstrasse 10">
            <extension url="http://hl7.org/fhir/StructureDefinition/iso21090-ADXP-streetName">
              <valueString value="Hauptstrasse"/>
            </extension>
            <extension url="http://hl7.org/fhir/StructureDefinition/iso21090-ADXP-houseNumber">
              <valueString value="10"/>
            </extension>
          </line>
          <city value="Solothurn"/>
          <postalCode value="4500"/>
        </address>
      </Organization>
    </resource>
  </entry>
  <entry>
    <fullUrl value="urn:uuid:35e497a6-bd35-4e67-82fa-60a8a235ebec"/>
    <resource>
      <PractitionerRole>
        <id value="35e497a6-bd35-4e67-82fa-60a8a235ebec"/>
        <practitioner>
          <reference value="urn:uuid:f29fc9f3-d470-4a67-b4c2-b20600402e5d"/>
        </practitioner>
        <organization>
          <reference value="urn:uuid:d7b4c797-4974-463e-bc3a-65cb68cedf3b"/>
        </organization>
      </PractitionerRole>
    </resource>
  </entry>
  <entry>
    <fullUrl value="urn:uuid:ed66f160-19cf-459b-96b5-3f96f4fded61"/>
    <resource>
      <Specimen>
        <id value="ed66f160-19cf-459b-96b5-3f96f4fded61"/>
        <type>
          <text value="Material declared by Observation.code or non-mandatory"/>
        </type>
        <subject>
          <reference value="urn:uuid:92a1c608-7b87-4e3d-a387-1730f8809317"/>
        </subject>
        <collection>
          <collectedDateTime value="2024-10-15T14:20:00+02:00"/>
        </collection>
      </Specimen>
    </resource>
  </entry>
  <entry>
    <fullUrl value="urn:uuid:3733a80e-2095-4b27-bff9-e03a440d3a7b"/>
    <resource>
      <ServiceRequest>
        <id value="3733a80e-2095-4b27-bff9-e03a440d3a7b"/>
        <identifier>
          <value value="26500923675"/>
        </identifier>
        <status value="completed"/>
        <intent value="order"/>
        <code>
          <coding>
            <system value="http://loinc.org"/>
            <code value="101003-2"/>
          </coding>
        </code>
        <subject>
          <reference value="urn:uuid:92a1c608-7b87-4e3d-a387-1730f8809317"/>
        </subject>
        <requester>
          <reference value="urn:uuid:35e497a6-bd35-4e67-82fa-60a8a235ebec"/>
        </requester>
        <specimen>
          <reference value="urn:uuid:ed66f160-19cf-459b-96b5-3f96f4fded61"/>
        </specimen>
      </ServiceRequest>
    </resource>
  </entry>
  <entry>
    <fullUrl value="urn:uuid:50c767a9-31cc-44db-b0ab-eed33b2faf33"/>
    <resource>
      <DiagnosticReport>
        <id value="50c767a9-31cc-44db-b0ab-eed33b2faf33"/>
        <extension url="http://hl7.org/fhir/5.0/StructureDefinition/extension-DiagnosticReport.composition">
          <valueReference>
            <reference value="urn:uuid:a1532634-c897-4fbc-ada2-f6ee90f07fc4"/>
          </valueReference>
        </extension>
        <identifier>
          <system value="urn:ietf:rfc:3986"/>
          <value value="urn:uuid:54013a2d-6012-443f-9a90-6331adb23aab"/>
        </identifier>
        <basedOn>
          <reference value="urn:uuid:3733a80e-2095-4b27-bff9-e03a440d3a7b"/>
        </basedOn>
        <status value="final"/>
        <code>
          <coding>
            <system value="http://loinc.org"/>
            <code value="11502-2"/>
            <display value="Laboratory report"/>
          </coding>
        </code>
        <subject>
          <reference value="urn:uuid:92a1c608-7b87-4e3d-a387-1730f8809317"/>
        </subject>
        <performer>
          <reference value="urn:uuid:38bcf86c-d27b-41e8-a2c2-9abed00c0890"/>
        </performer>
        <specimen>
          <reference value="urn:uuid:ed66f160-19cf-459b-96b5-3f96f4fded61"/>
        </specimen>
        <result>
          <reference value="urn:uuid:be59d166-6536-4a36-95d2-b5ca41a636ef"/>
        </result>
      </DiagnosticReport>
    </resource>
  </entry>
</Bundle>