<?xml version="1.0" encoding="UTF-8"?>

<Bundle xmlns="http://hl7.org/fhir">
  <id value="65Doc-Tuberculosis"/>
  <identifier>
    <system value="urn:ietf:rfc:3986"/>
    <value value="urn:uuid:b9a8b9ee-9157-44af-b46e-8c683c69d6bd"/>
  </identifier>
  <type value="document"/>
  <timestamp value="2025-03-17T12:00:00+02:00"/>
  <entry>
    <fullUrl value="urn:uuid:44459135-c3ce-4447-9f69-50b6457f8f4f"/>
    <resource>
      <Composition>
        <id value="44459135-c3ce-4447-9f69-50b6457f8f4f"/>
        <language value="de-CH"/>
        <identifier>
          <system value="urn:ietf:rfc:3986"/>
          <value value="urn:uuid:b9a8b9ee-9157-44af-b46e-8c683c69d6bd"/>
        </identifier>
        <status value="final"/>
        <type>
          <coding>
            <system value="http://snomed.info/sct"/>
            <version value="http://snomed.info/sct/2011000195101"/>
            <code value="4241000179101"/>
            <display value="Laborbericht"/>
          </coding>
          <coding>
            <system value="http://loinc.org"/>
            <code value="11502-2"/>
            <display value="Laboratory report"/>
          </coding>
        </type>
        <subject>
          <reference value="urn:uuid:89810214-e9af-4211-9ba7-57a9e77e509e"/>
        </subject>
        <date value="2025-03-17T12:00:00+02:00"/>
        <author>
          <reference value="urn:uuid:e0a5785d-b4e1-4600-8bbe-ae599013a5a7"/>
        </author>
        <title value="Laborbericht vom 17.03.2025"/>
        <section>
          <title value="Analyseergebnisse der mikrobiologischen Untersuchung"/>
          <code>
            <coding>
              <system value="http://loinc.org"/>
              <code value="18725-2"/>
              <display value="Microbiology studies (set)"/>
            </coding>
          </code>
          <entry>
            <reference value="urn:uuid:b7298a56-3057-4b91-ab90-2994bb6857dc"/>
          </entry>
        </section>
      </Composition>
    </resource>
  </entry>
  <entry>
    <fullUrl value="urn:uuid:89810214-e9af-4211-9ba7-57a9e77e509e"/>
    <resource>
      <Patient>
        <id value="89810214-e9af-4211-9ba7-57a9e77e509e"/>
        <identifier>
          <system value="urn:oid:2.16.756.5.32"/>
          <value value="7561234567897"/>
        </identifier>
        <name>
          <family value="Tanner"/>
          <given value="Ernst Karl"/>
        </name>
        <gender value="male"/>
        <birthDate value="1966-08-22"/>
        <address>
          <use value="home"/>
          <line value="Tannenstrasse 10a">
            <extension url="http://hl7.org/fhir/StructureDefinition/iso21090-ADXP-streetName">
              <valueString value="Tannenstrasse"/>
            </extension>
            <extension url="http://hl7.org/fhir/StructureDefinition/iso21090-ADXP-houseNumber">
              <valueString value="10a"/>
            </extension>
          </line>
          <city value="Bern"/>
          <state value="BE"/>
          <postalCode value="3000"/>
          <country value="CH">
            <extension url="http://hl7.org/fhir/StructureDefinition/iso21090-SC-coding">
              <valueCoding>
                <system value="urn:iso:std:iso:3166"/>
                <code value="CH"/>
              </valueCoding>
            </extension>
          </country>
        </address>
      </Patient>
    </resource>
  </entry>
  <entry>
    <fullUrl value="urn:uuid:e0a5785d-b4e1-4600-8bbe-ae599013a5a7"/>
    <resource>
      <Organization>
        <id value="e0a5785d-b4e1-4600-8bbe-ae599013a5a7"/>
        <identifier>
          <system value="urn:oid:2.51.1.3"/>
          <value value="7601002331470"/>
        </identifier>
        <name value="SanLab"/>
      </Organization>
    </resource>
  </entry>
  <entry>
    <fullUrl value="urn:uuid:b7298a56-3057-4b91-ab90-2994bb6857dc"/>
    <resource>
      <Observation>
        <id value="b7298a56-3057-4b91-ab90-2994bb6857dc"/>
        <status value="final"/>
        <category>
          <coding>
            <system value="http://terminology.hl7.org/CodeSystem/observation-category"/>
            <code value="laboratory"/>
            <display value="Laboratory"/>
          </coding>
        </category>
        <code>
          <coding>
            <system value="http://loinc.org"/>
            <code value="9823-6"/>
          </coding>
        </code>
        <subject>
          <reference value="urn:uuid:89810214-e9af-4211-9ba7-57a9e77e509e"/>
        </subject>
        <effectiveDateTime value="2025-01-19T14:20:00+02:00"/>
        <performer>
          <reference value="urn:uuid:e0a5785d-b4e1-4600-8bbe-ae599013a5a7"/>
        </performer>
        <valueCodeableConcept>
          <coding>
            <system value="http://snomed.info/sct"/>
            <code value="51320008"/>
          </coding>
        </valueCodeableConcept>
        <interpretation>
          <coding>
            <system value="http://terminology.hl7.org/CodeSystem/v3-ObservationInterpretation"/>
            <code value="POS"/>
            <display value="Positive"/>
          </coding>
        </interpretation>
        <specimen>
          <reference value="urn:uuid:16c44816-dfc2-43c2-a745-e4e2831bf260"/>
        </specimen>
      </Observation>
    </resource>
  </entry>
  <entry>
    <fullUrl value="urn:uuid:4d56d4a5-03db-476e-8c1b-ec0a258e75ed"/>
    <resource>
      <Practitioner>
        <id value="4d56d4a5-03db-476e-8c1b-ec0a258e75ed"/>
        <identifier>
          <system value="urn:oid:2.51.1.3"/>
          <value value="7601000000514"/>
        </identifier>
        <name>
          <family value="Hauser"/>
          <given value="Peter"/>
        </name>
        <telecom>
          <system value="phone"/>
          <value value="+41 79 222 33 44"/>
        </telecom>
        <telecom>
          <system value="email"/>
          <value value="peter.hauser@hauserpraxis.ch"/>
        </telecom>
      </Practitioner>
    </resource>
  </entry>
  <entry>
    <fullUrl value="urn:uuid:608d8b75-f359-4a7f-9f83-16dd19cb18fc"/>
    <resource>
      <Organization>
        <id value="608d8b75-f359-4a7f-9f83-16dd19cb18fc"/>
        <identifier>
          <system value="urn:oid:2.16.756.5.45"/>
          <value value="A74966168"/>
        </identifier>
        <name value="Praxis Dr. Hauser"/>
        <address>
          <line value="Hauptstrasse 10">
            <extension url="http://hl7.org/fhir/StructureDefinition/iso21090-ADXP-streetName">
              <valueString value="Hauptstrasse"/>
            </extension>
            <extension url="http://hl7.org/fhir/StructureDefinition/iso21090-ADXP-houseNumber">
              <valueString value="10"/>
            </extension>
          </line>
          <city value="Solothurn"/>
          <postalCode value="4500"/>
        </address>
      </Organization>
    </resource>
  </entry>
  <entry>
    <fullUrl value="urn:uuid:b6f8bf39-a345-4cf3-9c80-83f5a48bfa0f"/>
    <resource>
      <PractitionerRole>
        <id value="b6f8bf39-a345-4cf3-9c80-83f5a48bfa0f"/>
        <practitioner>
          <reference value="urn:uuid:4d56d4a5-03db-476e-8c1b-ec0a258e75ed"/>
        </practitioner>
        <organization>
          <reference value="urn:uuid:608d8b75-f359-4a7f-9f83-16dd19cb18fc"/>
        </organization>
      </PractitionerRole>
    </resource>
  </entry>
  <entry>
    <fullUrl value="urn:uuid:16c44816-dfc2-43c2-a745-e4e2831bf260"/>
    <resource>
      <Specimen>
        <id value="16c44816-dfc2-43c2-a745-e4e2831bf260"/>
        <subject>
          <reference value="urn:uuid:89810214-e9af-4211-9ba7-57a9e77e509e"/>
        </subject>
        <collection>
          <collectedDateTime value="2025-03-15T14:20:00+02:00"/>
        </collection>
      </Specimen>
    </resource>
  </entry>
  <entry>
    <fullUrl value="urn:uuid:3cbae724-89a1-4599-a77c-67a0e6a469be"/>
    <resource>
      <ServiceRequest>
        <id value="3cbae724-89a1-4599-a77c-67a0e6a469be"/>
        <identifier>
          <value value="36500923675"/>
        </identifier>
        <status value="completed"/>
        <intent value="order"/>
        <code>
          <coding>
            <system value="http://loinc.org"/>
            <code value="9823-6"/>
          </coding>
        </code>
        <subject>
          <reference value="urn:uuid:89810214-e9af-4211-9ba7-57a9e77e509e"/>
        </subject>
        <requester>
          <reference value="urn:uuid:b6f8bf39-a345-4cf3-9c80-83f5a48bfa0f"/>
        </requester>
        <specimen>
          <reference value="urn:uuid:16c44816-dfc2-43c2-a745-e4e2831bf260"/>
        </specimen>
      </ServiceRequest>
    </resource>
  </entry>
  <entry>
    <fullUrl value="urn:uuid:ef9dcad2-5a10-4530-98d6-a9efb5635a76"/>
    <resource>
      <DiagnosticReport>
        <id value="ef9dcad2-5a10-4530-98d6-a9efb5635a76"/>
        <extension url="http://hl7.org/fhir/5.0/StructureDefinition/extension-DiagnosticReport.composition">
          <valueReference>
            <reference value="urn:uuid:44459135-c3ce-4447-9f69-50b6457f8f4f"/>
          </valueReference>
        </extension>
        <identifier>
          <system value="urn:ietf:rfc:3986"/>
          <value value="urn:uuid:b9a8b9ee-9157-44af-b46e-8c683c69d6bd"/>
        </identifier>
        <basedOn>
          <reference value="urn:uuid:3cbae724-89a1-4599-a77c-67a0e6a469be"/>
        </basedOn>
        <status value="final"/>
        <code>
          <coding>
            <system value="http://loinc.org"/>
            <code value="11502-2"/>
            <display value="Laboratory report"/>
          </coding>
        </code>
        <subject>
          <reference value="urn:uuid:89810214-e9af-4211-9ba7-57a9e77e509e"/>
        </subject>
        <performer>
          <reference value="urn:uuid:e0a5785d-b4e1-4600-8bbe-ae599013a5a7"/>
        </performer>
        <specimen>
          <reference value="urn:uuid:16c44816-dfc2-43c2-a745-e4e2831bf260"/>
        </specimen>
        <result>
          <reference value="urn:uuid:b7298a56-3057-4b91-ab90-2994bb6857dc"/>
        </result>
      </DiagnosticReport>
    </resource>
  </entry>
</Bundle>