<?xml version="1.0" encoding="UTF-8"?>

<Bundle xmlns="http://hl7.org/fhir">
  <id value="45Doc-Sars-CoV"/>
  <identifier>
    <system value="urn:ietf:rfc:3986"/>
    <value value="urn:uuid:54013a2d-6012-443f-9a90-6331adb23aab"/>
  </identifier>
  <type value="document"/>
  <timestamp value="2024-10-20T12:00:00+02:00"/>
  <entry>
    <fullUrl value="urn:uuid:18b83cf7-0e14-4b44-b39d-7b791a3e7bb6"/>
    <resource>
      <Composition>
        <id value="18b83cf7-0e14-4b44-b39d-7b791a3e7bb6"/>
        <language value="de-CH"/>
        <identifier>
          <system value="urn:ietf:rfc:3986"/>
          <value value="urn:uuid:54013a2d-6012-443f-9a90-6331adb23aab"/>
        </identifier>
        <status value="final"/>
        <type>
          <coding>
            <system value="http://snomed.info/sct"/>
            <version value="http://snomed.info/sct/2011000195101"/>
            <code value="4241000179101"/>
            <display value="Laborbericht"/>
          </coding>
          <coding>
            <system value="http://loinc.org"/>
            <code value="11502-2"/>
            <display value="Laboratory report"/>
          </coding>
        </type>
        <subject>
          <reference value="urn:uuid:dd913d05-ff0b-4c8a-a7b0-ccc1d61a229f"/>
        </subject>
        <date value="2024-10-20T12:00:00+02:00"/>
        <author>
          <reference value="urn:uuid:1250bb45-ea3c-479f-8a54-b27ea0c60e21"/>
        </author>
        <title value="Laborbericht vom 20.10.2024"/>
        <section>
          <title value="Analyseergebnisse der mikrobiologischen Untersuchung"/>
          <code>
            <coding>
              <system value="http://loinc.org"/>
              <code value="18725-2"/>
              <display value="Microbiology studies (set)"/>
            </coding>
          </code>
          <entry>
            <reference value="urn:uuid:f3f30506-d0cd-4216-a6de-aa3fcd223666"/>
          </entry>
        </section>
      </Composition>
    </resource>
  </entry>
  <entry>
    <fullUrl value="urn:uuid:dd913d05-ff0b-4c8a-a7b0-ccc1d61a229f"/>
    <resource>
      <Patient>
        <id value="dd913d05-ff0b-4c8a-a7b0-ccc1d61a229f"/>
        <identifier>
          <system value="urn:oid:2.16.756.5.32"/>
          <value value="7561234567897"/>
        </identifier>
        <name>
          <family value="Dupont"/>
          <given value="Antoine"/>
        </name>
        <gender value="female"/>
        <birthDate value="1981-02-07"/>
        <address>
          <use value="home"/>
          <line value="rue de la république 10">
            <extension url="http://hl7.org/fhir/StructureDefinition/iso21090-ADXP-streetName">
              <valueString value="rue de la république"/>
            </extension>
            <extension url="http://hl7.org/fhir/StructureDefinition/iso21090-ADXP-houseNumber">
              <valueString value="10"/>
            </extension>
          </line>
          <city value="Carouge"/>
          <state value="GE"/>
          <postalCode value="1227"/>
          <country value="CH">
            <extension url="http://hl7.org/fhir/StructureDefinition/iso21090-SC-coding">
              <valueCoding>
                <system value="urn:iso:std:iso:3166"/>
                <code value="CH"/>
              </valueCoding>
            </extension>
          </country>
        </address>
      </Patient>
    </resource>
  </entry>
  <entry>
    <fullUrl value="urn:uuid:1250bb45-ea3c-479f-8a54-b27ea0c60e21"/>
    <resource>
      <Organization>
        <id value="1250bb45-ea3c-479f-8a54-b27ea0c60e21"/>
        <identifier>
          <system value="urn:oid:2.51.1.3"/>
          <value value="7601002331470"/>
        </identifier>
        <name value="SanLab"/>
      </Organization>
    </resource>
  </entry>
  <entry>
    <fullUrl value="urn:uuid:f3f30506-d0cd-4216-a6de-aa3fcd223666"/>
    <resource>
      <Observation>
        <id value="f3f30506-d0cd-4216-a6de-aa3fcd223666"/>
        <status value="final"/>
        <category>
          <coding>
            <system value="http://terminology.hl7.org/CodeSystem/observation-category"/>
            <code value="laboratory"/>
            <display value="Laboratory"/>
          </coding>
        </category>
        <code>
          <coding>
            <system value="http://loinc.org"/>
            <code value="41458-1"/>
          </coding>
        </code>
        <subject>
          <reference value="urn:uuid:dd913d05-ff0b-4c8a-a7b0-ccc1d61a229f"/>
        </subject>
        <effectiveDateTime value="2024-10-19T14:20:00+02:00"/>
        <performer>
          <reference value="urn:uuid:1250bb45-ea3c-479f-8a54-b27ea0c60e21"/>
        </performer>
        <dataAbsentReason>
          <coding>
            <system value="http://terminology.hl7.org/CodeSystem/data-absent-reason"/>
            <code value="not-applicable"/>
          </coding>
        </dataAbsentReason>
        <interpretation>
          <coding>
            <system value="http://terminology.hl7.org/CodeSystem/v3-ObservationInterpretation"/>
            <code value="POS"/>
            <display value="Positive"/>
          </coding>
        </interpretation>
        <specimen>
          <reference value="urn:uuid:dc1c0003-ead5-4f33-ae29-e54011e7ce74"/>
        </specimen>
      </Observation>
    </resource>
  </entry>
  <entry>
    <fullUrl value="urn:uuid:65e82177-cd06-4589-867b-b54134addc8e"/>
    <resource>
      <Practitioner>
        <id value="65e82177-cd06-4589-867b-b54134addc8e"/>
        <identifier>
          <system value="urn:oid:2.51.1.3"/>
          <value value="7601000000514"/>
        </identifier>
        <name>
          <family value="Hauser"/>
          <given value="Peter"/>
        </name>
        <telecom>
          <system value="phone"/>
          <value value="+41 79 222 33 44"/>
        </telecom>
        <telecom>
          <system value="email"/>
          <value value="peter.hauser@hauserpraxis.ch"/>
        </telecom>
      </Practitioner>
    </resource>
  </entry>
  <entry>
    <fullUrl value="urn:uuid:ee4a42df-f57b-4abf-88bc-162f57fddd8c"/>
    <resource>
      <Organization>
        <id value="ee4a42df-f57b-4abf-88bc-162f57fddd8c"/>
        <identifier>
          <system value="urn:oid:2.16.756.5.45"/>
          <value value="A74966168"/>
        </identifier>
        <name value="Praxis Dr. Hauser"/>
        <address>
          <line value="Hauptstrasse 10">
            <extension url="http://hl7.org/fhir/StructureDefinition/iso21090-ADXP-streetName">
              <valueString value="Hauptstrasse"/>
            </extension>
            <extension url="http://hl7.org/fhir/StructureDefinition/iso21090-ADXP-houseNumber">
              <valueString value="10"/>
            </extension>
          </line>
          <city value="Solothurn"/>
          <postalCode value="4500"/>
        </address>
      </Organization>
    </resource>
  </entry>
  <entry>
    <fullUrl value="urn:uuid:cbd0b41c-5934-40ea-9495-3b6502a530c4"/>
    <resource>
      <PractitionerRole>
        <id value="cbd0b41c-5934-40ea-9495-3b6502a530c4"/>
        <practitioner>
          <reference value="urn:uuid:65e82177-cd06-4589-867b-b54134addc8e"/>
        </practitioner>
        <organization>
          <reference value="urn:uuid:ee4a42df-f57b-4abf-88bc-162f57fddd8c"/>
        </organization>
      </PractitionerRole>
    </resource>
  </entry>
  <entry>
    <fullUrl value="urn:uuid:dc1c0003-ead5-4f33-ae29-e54011e7ce74"/>
    <resource>
      <Specimen>
        <id value="dc1c0003-ead5-4f33-ae29-e54011e7ce74"/>
        <type>
          <text value="Material declared by Observation.code or non-mandatory"/>
        </type>
        <subject>
          <reference value="urn:uuid:dd913d05-ff0b-4c8a-a7b0-ccc1d61a229f"/>
        </subject>
        <collection>
          <collectedDateTime value="2024-10-15T14:20:00+02:00"/>
        </collection>
      </Specimen>
    </resource>
  </entry>
  <entry>
    <fullUrl value="urn:uuid:b41f7c58-7e02-464a-8879-925227391c75"/>
    <resource>
      <ServiceRequest>
        <id value="b41f7c58-7e02-464a-8879-925227391c75"/>
        <identifier>
          <value value="26500923675"/>
        </identifier>
        <status value="completed"/>
        <intent value="order"/>
        <code>
          <coding>
            <system value="http://loinc.org"/>
            <code value="41458-1"/>
          </coding>
        </code>
        <subject>
          <reference value="urn:uuid:dd913d05-ff0b-4c8a-a7b0-ccc1d61a229f"/>
        </subject>
        <requester>
          <reference value="urn:uuid:cbd0b41c-5934-40ea-9495-3b6502a530c4"/>
        </requester>
        <specimen>
          <reference value="urn:uuid:dc1c0003-ead5-4f33-ae29-e54011e7ce74"/>
        </specimen>
      </ServiceRequest>
    </resource>
  </entry>
  <entry>
    <fullUrl value="urn:uuid:6e23eea4-e51e-4d24-bcb6-84b13aed6f40"/>
    <resource>
      <DiagnosticReport>
        <id value="6e23eea4-e51e-4d24-bcb6-84b13aed6f40"/>
        <extension url="http://hl7.org/fhir/5.0/StructureDefinition/extension-DiagnosticReport.composition">
          <valueReference>
            <reference value="urn:uuid:18b83cf7-0e14-4b44-b39d-7b791a3e7bb6"/>
          </valueReference>
        </extension>
        <identifier>
          <system value="urn:ietf:rfc:3986"/>
          <value value="urn:uuid:54013a2d-6012-443f-9a90-6331adb23aab"/>
        </identifier>
        <basedOn>
          <reference value="urn:uuid:b41f7c58-7e02-464a-8879-925227391c75"/>
        </basedOn>
        <status value="final"/>
        <code>
          <coding>
            <system value="http://loinc.org"/>
            <code value="11502-2"/>
            <display value="Laboratory report"/>
          </coding>
        </code>
        <subject>
          <reference value="urn:uuid:dd913d05-ff0b-4c8a-a7b0-ccc1d61a229f"/>
        </subject>
        <performer>
          <reference value="urn:uuid:1250bb45-ea3c-479f-8a54-b27ea0c60e21"/>
        </performer>
        <specimen>
          <reference value="urn:uuid:dc1c0003-ead5-4f33-ae29-e54011e7ce74"/>
        </specimen>
        <result>
          <reference value="urn:uuid:f3f30506-d0cd-4216-a6de-aa3fcd223666"/>
        </result>
      </DiagnosticReport>
    </resource>
  </entry>
</Bundle>