{
  "resourceType" : "Bundle",
  "id" : "DocumentPadvCancelParacetamolCARAPMP004",
  "meta" : {
    "profile" : ["http://fhir.ch/ig/ch-emed-epr/StructureDefinition/ch-emed-epr-document-pharmaceuticaladvice"]
  },
  "identifier" : {
    "system" : "urn:ietf:rfc:3986",
    "value" : "urn:uuid:8796440c-604a-411f-a1d9-8277735eec05"
  },
  "type" : "document",
  "timestamp" : "2023-11-04T12:00:00+02:00",
  "entry" : [{
    "fullUrl" : "urn:uuid:8796440c-604a-411f-a1d9-8277735eec05",
    "resource" : {
      "resourceType" : "Composition",
      "id" : "CompositionPadvCancelParacetamolCARAPMP004",
      "meta" : {
        "profile" : ["http://fhir.ch/ig/ch-emed-epr/StructureDefinition/ch-emed-epr-composition-pharmaceuticaladvice"]
      },
      "language" : "fr-CH",
      "text" : {
        "status" : "generated",
        "div" : "<div xmlns=\"http://www.w3.org/1999/xhtml\" xml:lang=\"fr-CH\" lang=\"fr-CH\"><a name=\"Composition_CompositionPadvCancelParacetamolCARAPMP004\"> </a><p class=\"res-header-id\"><b>Generated Narrative: Composition CompositionPadvCancelParacetamolCARAPMP004</b></p><a name=\"CompositionPadvCancelParacetamolCARAPMP004\"> </a><a name=\"hcCompositionPadvCancelParacetamolCARAPMP004\"> </a><div style=\"display: inline-block; background-color: #d9e0e7; padding: 6px; margin: 4px; border: 1px solid #8da1b4; border-radius: 5px; line-height: 60%\"><p style=\"margin-bottom: 0px\">Language: fr-CH</p><p style=\"margin-bottom: 0px\">Profile: <a href=\"StructureDefinition-ch-emed-epr-composition-pharmaceuticaladvice.html\">PADV Composition</a></p></div><p><b>identifier</b>: <a href=\"http://terminology.hl7.org/6.5.0/NamingSystem-uri.html\" title=\"As defined by RFC 3986 (http://www.ietf.org/rfc/rfc3986.txt)(with many schemes defined in many RFCs). For OIDs and UUIDs, use the URN form (urn:oid:(note: lowercase) and urn:uuid:). See http://www.ietf.org/rfc/rfc3001.txt and http://www.ietf.org/rfc/rfc4122.txt \r\n\r\nThis oid is used as an identifier II.root to indicate the the extension is an absolute URI (technically, an IRI). Typically, this is used for OIDs and GUIDs. Note that when this OID is used with OIDs and GUIDs, the II.extension should start with urn:oid or urn:uuid: \r\n\r\nNote that this OID is created to aid with interconversion between CDA and FHIR - FHIR uses urn:ietf:rfc:3986 as equivalent to this OID. URIs as identifiers appear more commonly in FHIR.\r\n\r\nThis OID may also be used in CD.codeSystem.\">Uniform Resource Identifier (URI)</a>/urn:uuid:8796440c-604a-411f-a1d9-8277735eec05</p><p><b>status</b>: Final</p><p><b>type</b>: <span title=\"Codes:{http://snomed.info/sct 419891008}, {http://loinc.org 61356-2}\">Record artifact (record artifact)</span></p><p><b>date</b>: 2023-11-04 12:00:00+0200</p><p><b>author</b>: <a href=\"Bundle-BundleUtc6bPml.html#urn-uuid-213d609a-1164-459a-bb10-727516ae3d0c\">PractitionerRole</a></p><p><b>title</b>: Commentaire relatif à la médication</p><p><b>confidentiality</b>: normal</p></div>"
      },
      "identifier" : {
        "system" : "urn:ietf:rfc:3986",
        "value" : "urn:uuid:8796440c-604a-411f-a1d9-8277735eec05"
      },
      "status" : "final",
      "type" : {
        "coding" : [{
          "system" : "http://snomed.info/sct",
          "code" : "419891008",
          "display" : "Record artifact (record artifact)"
        },
        {
          "system" : "http://loinc.org",
          "code" : "61356-2",
          "display" : "Prestation de conseils [Recherche] Patient ; Document"
        }]
      },
      "subject" : {
        "reference" : "urn:uuid:9b00e81e-1165-4039-9d60-698ef838ae1a"
      },
      "date" : "2023-11-04T12:00:00+02:00",
      "author" : [{
        "reference" : "urn:uuid:213d609a-1164-459a-bb10-727516ae3d0c"
      }],
      "title" : "Commentaire relatif à la médication",
      "confidentiality" : "N",
      "_confidentiality" : {
        "extension" : [{
          "url" : "http://fhir.ch/ig/ch-core/StructureDefinition/ch-ext-epr-confidentialitycode",
          "valueCodeableConcept" : {
            "coding" : [{
              "system" : "http://snomed.info/sct",
              "code" : "17621005",
              "display" : "Normal (qualifier value)"
            }]
          }
        }]
      },
      "section" : [{
        "title" : "Conseils sur les médicaments",
        "code" : {
          "coding" : [{
            "system" : "http://loinc.org",
            "code" : "61357-0",
            "display" : "Medication pharmaceutical advice.brief Document"
          }]
        },
        "text" : {
          "status" : "generated",
          "div" : "<div xmlns=\"http://www.w3.org/1999/xhtml\">Changement concernant le traitement #1.</div>"
        },
        "entry" : [{
          "reference" : "urn:uuid:b34ff5b8-8da2-4a6f-8e68-852b84bad0b7"
        }]
      }]
    }
  },
  {
    "fullUrl" : "urn:uuid:9b00e81e-1165-4039-9d60-698ef838ae1a",
    "resource" : {
      "resourceType" : "Patient",
      "id" : "PatientCARAPMP004",
      "meta" : {
        "profile" : ["http://fhir.ch/ig/ch-emed-epr/StructureDefinition/ch-emed-epr-patient"]
      },
      "text" : {
        "status" : "generated",
        "div" : "<div xmlns=\"http://www.w3.org/1999/xhtml\"><a name=\"Patient_PatientCARAPMP004\"> </a><p class=\"res-header-id\"><b>Generated Narrative: Patient PatientCARAPMP004</b></p><a name=\"PatientCARAPMP004\"> </a><a name=\"hcPatientCARAPMP004\"> </a><div style=\"display: inline-block; background-color: #d9e0e7; padding: 6px; margin: 4px; border: 1px solid #8da1b4; border-radius: 5px; line-height: 60%\"><p style=\"margin-bottom: 0px\"/><p style=\"margin-bottom: 0px\">Profile: <a href=\"StructureDefinition-ch-emed-epr-patient.html\">CH EMED EPR Patient</a></p></div><p style=\"border: 1px #661aff solid; background-color: #e6e6ff; padding: 10px;\">Michaël Christopher Karce  Male, DoB: 1973-12-25 ( Medical record number\u00a0(use:\u00a0official,\u00a0))</p><hr/><table class=\"grid\"><tr><td style=\"background-color: #f3f5da\" title=\"Record is active\">Active:</td><td>true</td><td style=\"background-color: #f3f5da\" title=\"Known Marital status of Patient\">Marital Status:</td><td colspan=\"3\"><span title=\"Codes:{http://fhir.ch/ig/ch-core/CodeSystem/ech-11-maritalstatus 9}\">unbekannt</span></td></tr><tr><td style=\"background-color: #f3f5da\" title=\"Other Ids (see the one above)\">Other Ids:</td><td colspan=\"3\"><ul><li>Medical record number/100001368\u00a0(use:\u00a0secondary,\u00a0)</li><li>Medical record number/CARAPMP004\u00a0(use:\u00a0secondary,\u00a0)</li></ul></td></tr></table></div>"
      },
      "identifier" : [{
        "use" : "official",
        "type" : {
          "coding" : [{
            "system" : "http://terminology.hl7.org/CodeSystem/v2-0203",
            "code" : "MR"
          }]
        },
        "system" : "urn:oid:2.16.756.5.30.1.1625.3.1.3.1",
        "value" : "7857bf60-93a1-409d-a647-ee260cec9c0e"
      },
      {
        "use" : "secondary",
        "type" : {
          "coding" : [{
            "system" : "http://terminology.hl7.org/CodeSystem/v2-0203",
            "code" : "MR"
          }]
        },
        "system" : "urn:oid:2.16.756.5.30.1.177.2.2.1.1",
        "value" : "100001368"
      },
      {
        "use" : "secondary",
        "type" : {
          "coding" : [{
            "system" : "http://terminology.hl7.org/CodeSystem/v2-0203",
            "code" : "MR"
          }]
        },
        "system" : "urn:oid:2.16.756.5.30.1.196.3.2.1",
        "value" : "CARAPMP004"
      }],
      "active" : true,
      "name" : [{
        "family" : "Karce",
        "given" : ["Michaël Christopher"]
      }],
      "gender" : "male",
      "birthDate" : "1973-12-25",
      "maritalStatus" : {
        "coding" : [{
          "system" : "http://fhir.ch/ig/ch-core/CodeSystem/ech-11-maritalstatus",
          "code" : "9",
          "display" : "unbekannt"
        }]
      }
    }
  },
  {
    "fullUrl" : "urn:uuid:9fc8530b-b77d-4b53-8a21-fc786b697edf",
    "resource" : {
      "resourceType" : "Practitioner",
      "id" : "PractitionerCox",
      "meta" : {
        "profile" : ["http://fhir.ch/ig/ch-emed-epr/StructureDefinition/ch-emed-epr-practitioner"]
      },
      "text" : {
        "status" : "generated",
        "div" : "<div xmlns=\"http://www.w3.org/1999/xhtml\"><a name=\"Practitioner_PractitionerCox\"> </a><p class=\"res-header-id\"><b>Generated Narrative: Practitioner PractitionerCox</b></p><a name=\"PractitionerCox\"> </a><a name=\"hcPractitionerCox\"> </a><div style=\"display: inline-block; background-color: #d9e0e7; padding: 6px; margin: 4px; border: 1px solid #8da1b4; border-radius: 5px; line-height: 60%\"><p style=\"margin-bottom: 0px\"/><p style=\"margin-bottom: 0px\">Profile: <a href=\"StructureDefinition-ch-emed-epr-practitioner.html\">CH EMED EPR Practitioner</a></p></div><p><b>identifier</b>: <a href=\"https://www.gs1.org/standards/id-keys/gln\" title=\"Global Location Number\">GLN</a>/7601000234438</p><p><b>name</b>: Perry Cox </p></div>"
      },
      "identifier" : [{
        "system" : "urn:oid:2.51.1.3",
        "value" : "7601000234438"
      }],
      "name" : [{
        "family" : "Cox",
        "given" : ["Perry"]
      }]
    }
  },
  {
    "fullUrl" : "urn:uuid:213d609a-1164-459a-bb10-727516ae3d0c",
    "resource" : {
      "resourceType" : "PractitionerRole",
      "id" : "PractitionerRoleCoxAtHug",
      "meta" : {
        "profile" : ["http://fhir.ch/ig/ch-emed-epr/StructureDefinition/ch-emed-epr-practitionerrole"]
      },
      "text" : {
        "status" : "generated",
        "div" : "<div xmlns=\"http://www.w3.org/1999/xhtml\"><a name=\"PractitionerRole_PractitionerRoleCoxAtHug\"> </a><p class=\"res-header-id\"><b>Generated Narrative: PractitionerRole PractitionerRoleCoxAtHug</b></p><a name=\"PractitionerRoleCoxAtHug\"> </a><a name=\"hcPractitionerRoleCoxAtHug\"> </a><div style=\"display: inline-block; background-color: #d9e0e7; padding: 6px; margin: 4px; border: 1px solid #8da1b4; border-radius: 5px; line-height: 60%\"><p style=\"margin-bottom: 0px\"/><p style=\"margin-bottom: 0px\">Profile: <a href=\"StructureDefinition-ch-emed-epr-practitionerrole.html\">CH EMED EPR PractitionerRole</a></p></div><p><b>practitioner</b>: <a href=\"Bundle-BundleUtc6bPml.html#urn-uuid-9fc8530b-b77d-4b53-8a21-fc786b697edf\">Practitioner Perry Cox </a></p><p><b>organization</b>: <a href=\"Bundle-BundleUtc6bPml.html#urn-uuid-580fbe82-8734-4edf-ad4b-48124cdd03c6\">Organization Hôpitaux universitaires de Genève</a></p></div>"
      },
      "practitioner" : {
        "reference" : "urn:uuid:9fc8530b-b77d-4b53-8a21-fc786b697edf"
      },
      "organization" : {
        "reference" : "urn:uuid:580fbe82-8734-4edf-ad4b-48124cdd03c6"
      }
    }
  },
  {
    "fullUrl" : "urn:uuid:580fbe82-8734-4edf-ad4b-48124cdd03c6",
    "resource" : {
      "resourceType" : "Organization",
      "id" : "OrganizationHug",
      "meta" : {
        "profile" : ["http://fhir.ch/ig/ch-emed-epr/StructureDefinition/ch-emed-epr-organization"]
      },
      "text" : {
        "status" : "generated",
        "div" : "<div xmlns=\"http://www.w3.org/1999/xhtml\"><a name=\"Organization_OrganizationHug\"> </a><p class=\"res-header-id\"><b>Generated Narrative: Organization OrganizationHug</b></p><a name=\"OrganizationHug\"> </a><a name=\"hcOrganizationHug\"> </a><div style=\"display: inline-block; background-color: #d9e0e7; padding: 6px; margin: 4px; border: 1px solid #8da1b4; border-radius: 5px; line-height: 60%\"><p style=\"margin-bottom: 0px\"/><p style=\"margin-bottom: 0px\">Profile: <a href=\"StructureDefinition-ch-emed-epr-organization.html\">CH EMED EPR Organization</a></p></div><p><b>identifier</b>: <a href=\"https://www.gs1.org/standards/id-keys/gln\" title=\"Global Location Number\">GLN</a>/7601000234438</p><p><b>name</b>: Hôpitaux universitaires de Genève</p><p><b>address</b>: Rue Gabrielle-Perret-Gentil 4 Genève 1205 CH </p></div>"
      },
      "identifier" : [{
        "system" : "urn:oid:2.51.1.3",
        "value" : "7601000234438"
      }],
      "name" : "Hôpitaux universitaires de Genève",
      "address" : [{
        "line" : ["Rue Gabrielle-Perret-Gentil 4"],
        "city" : "Genève",
        "postalCode" : "1205",
        "country" : "CH"
      }]
    }
  },
  {
    "fullUrl" : "urn:uuid:b34ff5b8-8da2-4a6f-8e68-852b84bad0b7",
    "resource" : {
      "resourceType" : "Observation",
      "id" : "ObservationParacetamolAxapharmPrePadvCancel",
      "meta" : {
        "profile" : ["http://fhir.ch/ig/ch-emed-epr/StructureDefinition/ch-emed-epr-observation"]
      },
      "language" : "fr-CH",
      "text" : {
        "status" : "extensions",
        "div" : "<div xmlns=\"http://www.w3.org/1999/xhtml\" xml:lang=\"fr-CH\" lang=\"fr-CH\"><a name=\"Observation_ObservationParacetamolAxapharmPrePadvCancel\"> </a><p class=\"res-header-id\"><b>Generated Narrative: Observation ObservationParacetamolAxapharmPrePadvCancel</b></p><a name=\"ObservationParacetamolAxapharmPrePadvCancel\"> </a><a name=\"hcObservationParacetamolAxapharmPrePadvCancel\"> </a><div style=\"display: inline-block; background-color: #d9e0e7; padding: 6px; margin: 4px; border: 1px solid #8da1b4; border-radius: 5px; line-height: 60%\"><p style=\"margin-bottom: 0px\">Language: fr-CH</p><p style=\"margin-bottom: 0px\">Profile: <a href=\"StructureDefinition-ch-emed-epr-observation.html\">PADV Observation</a></p></div><blockquote><p><b>CH EMED Extension Treatment Plan</b></p><ul><li>id: <a href=\"http://terminology.hl7.org/6.5.0/NamingSystem-uri.html\" title=\"As defined by RFC 3986 (http://www.ietf.org/rfc/rfc3986.txt)(with many schemes defined in many RFCs). For OIDs and UUIDs, use the URN form (urn:oid:(note: lowercase) and urn:uuid:). See http://www.ietf.org/rfc/rfc3001.txt and http://www.ietf.org/rfc/rfc4122.txt \r\n\r\nThis oid is used as an identifier II.root to indicate the the extension is an absolute URI (technically, an IRI). Typically, this is used for OIDs and GUIDs. Note that when this OID is used with OIDs and GUIDs, the II.extension should start with urn:oid or urn:uuid: \r\n\r\nNote that this OID is created to aid with interconversion between CDA and FHIR - FHIR uses urn:ietf:rfc:3986 as equivalent to this OID. URIs as identifiers appear more commonly in FHIR.\r\n\r\nThis OID may also be used in CD.codeSystem.\">Uniform Resource Identifier (URI)</a>/urn:uuid:17837392-0340-414d-a3bf-fa9f237b91ff</li><li>externalDocumentId: <a href=\"http://terminology.hl7.org/6.5.0/NamingSystem-uri.html\" title=\"As defined by RFC 3986 (http://www.ietf.org/rfc/rfc3986.txt)(with many schemes defined in many RFCs). For OIDs and UUIDs, use the URN form (urn:oid:(note: lowercase) and urn:uuid:). See http://www.ietf.org/rfc/rfc3001.txt and http://www.ietf.org/rfc/rfc4122.txt \r\n\r\nThis oid is used as an identifier II.root to indicate the the extension is an absolute URI (technically, an IRI). Typically, this is used for OIDs and GUIDs. Note that when this OID is used with OIDs and GUIDs, the II.extension should start with urn:oid or urn:uuid: \r\n\r\nNote that this OID is created to aid with interconversion between CDA and FHIR - FHIR uses urn:ietf:rfc:3986 as equivalent to this OID. URIs as identifiers appear more commonly in FHIR.\r\n\r\nThis OID may also be used in CD.codeSystem.\">Uniform Resource Identifier (URI)</a>/urn:uuid:0399ef84-c71b-413b-8a66-b5a835f4f4c5</li></ul></blockquote><p><b>identifier</b>: <a href=\"http://terminology.hl7.org/6.5.0/NamingSystem-uri.html\" title=\"As defined by RFC 3986 (http://www.ietf.org/rfc/rfc3986.txt)(with many schemes defined in many RFCs). For OIDs and UUIDs, use the URN form (urn:oid:(note: lowercase) and urn:uuid:). See http://www.ietf.org/rfc/rfc3001.txt and http://www.ietf.org/rfc/rfc4122.txt \r\n\r\nThis oid is used as an identifier II.root to indicate the the extension is an absolute URI (technically, an IRI). Typically, this is used for OIDs and GUIDs. Note that when this OID is used with OIDs and GUIDs, the II.extension should start with urn:oid or urn:uuid: \r\n\r\nNote that this OID is created to aid with interconversion between CDA and FHIR - FHIR uses urn:ietf:rfc:3986 as equivalent to this OID. URIs as identifiers appear more commonly in FHIR.\r\n\r\nThis OID may also be used in CD.codeSystem.\">Uniform Resource Identifier (URI)</a>/urn:uuid:b34ff5b8-8da2-4a6f-8e68-852b84bad0b7</p><p><b>status</b>: Final</p><p><b>code</b>: <span title=\"Codes:{urn:oid:1.3.6.1.4.1.19376.1.9.2.1 CANCEL}\">CANCEL</span></p><p><b>subject</b>: <a href=\"Bundle-BundleUtc1Pml.html#urn-uuid-9b00e81e-1165-4039-9d60-698ef838ae1a\">Michaël Christopher Karce  Male, DoB: 1973-12-25 ( Medical record number\u00a0(use:\u00a0official,\u00a0))</a></p><p><b>issued</b>: 2023-10-04 00:00:00+0200</p><p><b>performer</b>: <a href=\"Bundle-BundleUtc6bPml.html#urn-uuid-213d609a-1164-459a-bb10-727516ae3d0c\">PractitionerRole</a></p><p><b>note</b>: </p><blockquote><div><p>Difficulté à perndre le comprimé pelliculé, substitution par un comprimé effervescent.</p>\n</div></blockquote></div>"
      },
      "extension" : [{
        "extension" : [{
          "url" : "id",
          "valueIdentifier" : {
            "system" : "urn:ietf:rfc:3986",
            "value" : "urn:uuid:17837392-0340-414d-a3bf-fa9f237b91ff"
          }
        },
        {
          "url" : "externalDocumentId",
          "valueIdentifier" : {
            "system" : "urn:ietf:rfc:3986",
            "value" : "urn:uuid:0399ef84-c71b-413b-8a66-b5a835f4f4c5"
          }
        }],
        "url" : "http://fhir.ch/ig/ch-emed/StructureDefinition/ch-emed-ext-treatmentplan"
      }],
      "identifier" : [{
        "system" : "urn:ietf:rfc:3986",
        "value" : "urn:uuid:b34ff5b8-8da2-4a6f-8e68-852b84bad0b7"
      }],
      "status" : "final",
      "code" : {
        "coding" : [{
          "system" : "urn:oid:1.3.6.1.4.1.19376.1.9.2.1",
          "code" : "CANCEL"
        }]
      },
      "subject" : {
        "reference" : "urn:uuid:9b00e81e-1165-4039-9d60-698ef838ae1a"
      },
      "issued" : "2023-10-04T00:00:00+02:00",
      "performer" : [{
        "reference" : "urn:uuid:213d609a-1164-459a-bb10-727516ae3d0c"
      }],
      "note" : [{
        "text" : "Difficulté à perndre le comprimé pelliculé, substitution par un comprimé effervescent."
      }]
    }
  }]
}