<?xml version="1.0" encoding="UTF-8"?>

<Bundle xmlns="http://hl7.org/fhir">
  <id value="2-pertussis-document-with-sr"/>
  <meta>
    <profile value="http://fhir.ch/ig/ch-lab-order/StructureDefinition/ch-lab-order-document-with-sr"/>
  </meta>
  <identifier>
    <system value="urn:ietf:rfc:3986"/>
    <value value="urn:uuid:26d3dff7-ab05-4737-a49c-5eccd33595f8"/>
  </identifier>
  <type value="document"/>
  <timestamp value="2019-04-01T20:18:41.341+00:00"/>
  <entry>
    <fullUrl value="http://example.com/fhir/Composition/2-pertussis-with-sr"/>
    <resource>
      <Composition>
        <id value="2-pertussis-with-sr"/>
        <meta>
          <profile value="http://fhir.ch/ig/ch-lab-order/StructureDefinition/ch-lab-order-composition-with-sr"/>
        </meta>
        <text>
          <status value="extensions"/><div xmlns="http://www.w3.org/1999/xhtml"><a name="Composition_2-pertussis-with-sr"> </a><p class="res-header-id"><b>Generated Narrative: Composition 2-pertussis-with-sr</b></p><a name="2-pertussis-with-sr"> </a><a name="hc2-pertussis-with-sr"> </a><div style="display: inline-block; background-color: #d9e0e7; padding: 6px; margin: 4px; border: 1px solid #8da1b4; border-radius: 5px; line-height: 60%"><p style="margin-bottom: 0px"/><p style="margin-bottom: 0px">Profile: <a href="StructureDefinition-ch-lab-order-composition-with-sr.html">CH LAB-Order Composition with ServiceRequest</a></p></div><p><b>CH ORF Urgent Notification Contact For The Response To This Document</b>: <a href="Bundle-0-best-practice-document-with-sr.html#PractitionerRole_EvaErlenmeyerLaborPipette">PractitionerRole: identifier = urn:oid:2.16.756.5.30.1.123.100.2.1.1#K333333</a></p><p><b>CH ORF Copy Receiver</b>: <a href="Bundle-0-best-practice-document-with-sr.html#PractitionerRole_MarcMustermannGruppenpraxis">PractitionerRole</a></p><p><b>CH ORF Copy Receiver</b>: <a href="Bundle-2-pertussis-document-with-sr-and-form.html#Patient_EmilKummer">Emil Kummer  Male, DoB: 2017-05-05 ( urn:oid:2.16.756.5.30.1.123.100.1.1.1#80756011110123400004)</a></p><p><b>status</b>: Final</p><p><b>type</b>: <span title="Codes:{http://snomed.info/sct 721965002}">Laboratory order (record artifact)</span></p><p><b>category</b>: <span title="Codes:{http://snomed.info/sct 721963009}">Order (record artifact)</span></p><p><b>date</b>: 2020-03-31 11:46:09+0200</p><p><b>author</b>: <a href="Bundle-1-tvt-document-with-sr-and-form.html#PractitionerRole_PeterPrestoGruppenpraxis">PractitionerRole</a></p><p><b>title</b>: Laboratory Order 2-pertussis with Service Request</p></div>
        </text>
        <extension url="http://fhir.ch/ig/ch-orf/StructureDefinition/ch-orf-urgentnoficationcontactfortheresponsetothisdocument">
          <valueReference>
            <reference value="PractitionerRole/EvaErlenmeyerLaborPipette"/>
          </valueReference>
        </extension>
        <extension url="http://fhir.ch/ig/ch-orf/StructureDefinition/ch-orf-copyreceiver">
          <valueReference>
            <reference value="PractitionerRole/MarcMustermannGruppenpraxis"/>
          </valueReference>
        </extension>
        <extension url="http://fhir.ch/ig/ch-orf/StructureDefinition/ch-orf-copyreceiver">
          <valueReference>
            <reference value="Patient/EmilKummer"/>
          </valueReference>
        </extension>
        <status value="final"/>
        <type>
          <coding>
            <system value="http://snomed.info/sct"/>
            <code value="721965002"/>
            <display value="Laboratory order (record artifact)"/>
          </coding>
        </type>
        <category>
          <coding>
            <system value="http://snomed.info/sct"/>
            <code value="721963009"/>
            <display value="Order (record artifact)"/>
          </coding>
        </category>
        <subject>
          <reference value="Patient/EmilKummer"/>
        </subject>
        <date value="2020-03-31T11:46:09+02:00"/>
        <author>
          <reference value="PractitionerRole/PeterPrestoGruppenpraxis"/>
        </author>
        <title value="Laboratory Order 2-pertussis with Service Request"/>
        <section>
          <title value="Laboratory Order with Service Request 2-pertussis"/>
          <code>
            <coding>
              <system value="http://snomed.info/sct"/>
              <code value="721963009"/>
              <display value="Order (record artifact)"/>
            </coding>
          </code>
          <entry>
            <reference value="ServiceRequest/2-pertussis-ServiceRequest"/>
          </entry>
          <entry>
            <reference value="ServiceRequest/2-pertussis-ServiceRequestCBC"/>
          </entry>
          <entry>
            <reference value="ServiceRequest/2-pertussis-ServiceRequestCRP"/>
          </entry>
          <entry>
            <reference value="ServiceRequest/2-pertussis-ServiceRequestAddTest"/>
          </entry>
        </section>
      </Composition>
    </resource>
  </entry>
  <entry>
    <fullUrl value="http://example.com/fhir/Patient/EmilKummer"/>
    <resource>
      <Patient>
        <id value="EmilKummer"/>
        <meta>
          <profile value="http://fhir.ch/ig/ch-core/StructureDefinition/ch-core-patient"/>
        </meta>
        <text>
          <status value="generated"/><div xmlns="http://www.w3.org/1999/xhtml"><a name="Patient_EmilKummer"> </a><p class="res-header-id"><b>Generated Narrative: Patient EmilKummer</b></p><a name="EmilKummer"> </a><a name="hcEmilKummer"> </a><div style="display: inline-block; background-color: #d9e0e7; padding: 6px; margin: 4px; border: 1px solid #8da1b4; border-radius: 5px; line-height: 60%"><p style="margin-bottom: 0px"/><p style="margin-bottom: 0px">Profile: <a href="http://fhir.ch/ig/ch-core/6.0.0/StructureDefinition-ch-core-patient.html">CH Core Patient</a></p></div><p style="border: 1px #661aff solid; background-color: #e6e6ff; padding: 10px;">Emil Kummer  Male, DoB: 2017-05-05 ( urn:oid:2.16.756.5.30.1.123.100.1.1.1#80756011110123400004)</p><hr/><table class="grid"><tr><td style="background-color: #f3f5da" title="Known Marital status of Patient">Marital Status:</td><td colspan="3"><span title="Codes:{http://fhir.ch/ig/ch-core/CodeSystem/ech-11-maritalstatus 1}">ledig</span></td></tr><tr><td style="background-color: #f3f5da" title="Language spoken">Language:</td><td colspan="3"><span title="Codes:{urn:ietf:bcp:47 de-CH}">Deutsch (Schweiz)</span> (preferred)</td></tr><tr><td style="background-color: #f3f5da" title="The registered place of birth of the patient. A sytem may use the address.text if they don't store the birthPlace address in discrete elements."><a href="http://hl7.org/fhir/extensions/5.3.0-ballot-tc1/StructureDefinition-patient-birthPlace.html">Patient Birth Place</a></td><td colspan="3">Paris Frankreich </td></tr><tr><td style="background-color: #f3f5da" title="The place of origin of the patient."><a href="http://fhir.ch/ig/ch-core/6.0.0/StructureDefinition-ch-core-patient-ech-11-placeoforigin.html">Place of Origin according to eCH-0011</a></td><td colspan="3">Köniz BE </td></tr><tr><td style="background-color: #f3f5da" title="The patient's professed religious affiliations."><a href="http://hl7.org/fhir/extensions/5.3.0-ballot-tc1/StructureDefinition-patient-religion.html">Patient Religion</a></td><td colspan="3"><span title="Codes:{http://terminology.hl7.org/CodeSystem/v3-ReligiousAffiliation 1041}">Roman Catholic Church</span></td></tr></table></div>
        </text>
        <extension url="http://hl7.org/fhir/StructureDefinition/patient-birthPlace">
          <valueAddress>
            <city value="Paris"/>
            <country value="Frankreich"/>
          </valueAddress>
        </extension>
        <extension url="http://fhir.ch/ig/ch-core/StructureDefinition/ch-core-patient-ech-11-placeoforigin">
          <valueAddress>
            <city value="Köniz"/>
            <state value="BE"/>
          </valueAddress>
        </extension>
        <extension url="http://hl7.org/fhir/StructureDefinition/patient-religion">
          <valueCodeableConcept>
            <coding>
              <system value="http://terminology.hl7.org/CodeSystem/v3-ReligiousAffiliation"/>
              <code value="1041"/>
              <display value="Roman Catholic Church"/>
            </coding>
          </valueCodeableConcept>
        </extension>
        <identifier>
          <system value="urn:oid:2.16.756.5.30.1.123.100.1.1.1"/>
          <value value="80756011110123400004"/>
        </identifier>
        <name>
          <family value="Kummer"/>
          <given value="Emil"/>
        </name>
        <gender value="male"/>
        <birthDate value="2017-05-05"/>
        <maritalStatus>
          <coding>
            <system value="http://fhir.ch/ig/ch-core/CodeSystem/ech-11-maritalstatus"/>
            <code value="1"/>
            <display value="ledig"/>
          </coding>
        </maritalStatus>
        <communication>
          <language>
            <coding>
              <system value="urn:ietf:bcp:47"/>
              <code value="de-CH"/>
            </coding>
            <text value="Deutsch (Schweiz)"/>
          </language>
          <preferred value="true"/>
        </communication>
      </Patient>
    </resource>
  </entry>
  <entry>
    <fullUrl value="http://example.com/fhir/Practitioner/PeterPresto"/>
    <resource>
      <Practitioner>
        <id value="PeterPresto"/>
        <meta>
          <profile value="http://fhir.ch/ig/ch-core/StructureDefinition/ch-core-practitioner-epr"/>
        </meta>
        <text>
          <status value="generated"/><div xmlns="http://www.w3.org/1999/xhtml"><a name="Practitioner_PeterPresto"> </a><p class="res-header-id"><b>Generated Narrative: Practitioner PeterPresto</b></p><a name="PeterPresto"> </a><a name="hcPeterPresto"> </a><div style="display: inline-block; background-color: #d9e0e7; padding: 6px; margin: 4px; border: 1px solid #8da1b4; border-radius: 5px; line-height: 60%"><p style="margin-bottom: 0px"/><p style="margin-bottom: 0px">Profile: <a href="http://fhir.ch/ig/ch-core/6.0.0/StructureDefinition-ch-core-practitioner-epr.html">CH Core Practitioner EPR</a></p></div><p><b>identifier</b>: <a href="https://www.gs1.org/standards/id-keys/gln" title="Global Location Number">GLN</a>/7601022050702, <code>urn:oid:2.16.756.5.30.1.123.100.2.1.1</code>/L248519</p><p><b>name</b>: Peter Presto (Official)</p><p><b>telecom</b>: ph: 032 333 22 33(Work), <a href="mailto:peter.presto@arztpraxis.ch">peter.presto@arztpraxis.ch</a></p></div>
        </text>
        <identifier>
          <system value="urn:oid:2.51.1.3"/>
          <value value="7601022050702"/>
        </identifier>
        <identifier>
          <system value="urn:oid:2.16.756.5.30.1.123.100.2.1.1"/>
          <value value="L248519"/>
        </identifier>
        <name>
          <use value="official"/>
          <family value="Presto"/>
          <given value="Peter"/>
          <prefix value="Dr. med.">
            <extension url="http://hl7.org/fhir/StructureDefinition/iso21090-EN-qualifier">
              <valueCode value="AC"/>
            </extension>
          </prefix>
        </name>
        <telecom>
          <system value="phone"/>
          <value value="032 333 22 33"/>
          <use value="work"/>
        </telecom>
        <telecom>
          <system value="email"/>
          <value value="peter.presto@arztpraxis.ch"/>
          <use value="work"/>
        </telecom>
      </Practitioner>
    </resource>
  </entry>
  <entry>
    <fullUrl value="http://example.com/fhir/Organization/Gruppenpraxis"/>
    <resource>
      <Organization>
        <id value="Gruppenpraxis"/>
        <meta>
          <profile value="http://fhir.ch/ig/ch-core/StructureDefinition/ch-core-organization-epr"/>
        </meta>
        <text>
          <status value="generated"/><div xmlns="http://www.w3.org/1999/xhtml"><a name="Organization_Gruppenpraxis"> </a><p class="res-header-id"><b>Generated Narrative: Organization Gruppenpraxis</b></p><a name="Gruppenpraxis"> </a><a name="hcGruppenpraxis"> </a><div style="display: inline-block; background-color: #d9e0e7; padding: 6px; margin: 4px; border: 1px solid #8da1b4; border-radius: 5px; line-height: 60%"><p style="margin-bottom: 0px"/><p style="margin-bottom: 0px">Profile: <a href="http://fhir.ch/ig/ch-core/6.0.0/StructureDefinition-ch-core-organization-epr.html">CH Core Organization EPR</a></p></div><p><b>identifier</b>: <a href="https://www.gs1.org/standards/id-keys/gln" title="Global Location Number">GLN</a>/7601000241115</p><p><b>name</b>: Gruppenpraxis Olten</p><p><b>telecom</b>: <a href="tel:+41555556677">+41555556677</a>, <a href="mailto:info@gruppenpraxis.ch">info@gruppenpraxis.ch</a>, <a href="http://www.gruppenpraxis.ch">http://www.gruppenpraxis.ch</a></p><p><b>address</b>: Gerbergasse 12 Olten 4600 CH </p></div>
        </text>
        <identifier>
          <system value="urn:oid:2.51.1.3"/>
          <value value="7601000241115"/>
        </identifier>
        <name value="Gruppenpraxis Olten"/>
        <telecom>
          <system value="phone"/>
          <value value="+41555556677"/>
          <use value="work"/>
        </telecom>
        <telecom>
          <system value="email"/>
          <value value="info@gruppenpraxis.ch"/>
          <use value="work"/>
        </telecom>
        <telecom>
          <system value="url"/>
          <value value="http://www.gruppenpraxis.ch"/>
          <use value="work"/>
        </telecom>
        <address>
          <line value="Gerbergasse 12"/>
          <city value="Olten"/>
          <postalCode value="4600"/>
          <country value="CH"/>
        </address>
      </Organization>
    </resource>
  </entry>
  <entry>
    <fullUrl value="http://example.com/fhir/PractitionerRole/PeterPrestoGruppenpraxis"/>
    <resource>
      <PractitionerRole>
        <id value="PeterPrestoGruppenpraxis"/>
        <meta>
          <profile value="http://fhir.ch/ig/ch-core/StructureDefinition/ch-core-practitionerrole"/>
        </meta>
        <text>
          <status value="generated"/><div xmlns="http://www.w3.org/1999/xhtml"><a name="PractitionerRole_PeterPrestoGruppenpraxis"> </a><p class="res-header-id"><b>Generated Narrative: PractitionerRole PeterPrestoGruppenpraxis</b></p><a name="PeterPrestoGruppenpraxis"> </a><a name="hcPeterPrestoGruppenpraxis"> </a><div style="display: inline-block; background-color: #d9e0e7; padding: 6px; margin: 4px; border: 1px solid #8da1b4; border-radius: 5px; line-height: 60%"><p style="margin-bottom: 0px"/><p style="margin-bottom: 0px">Profile: <a href="http://fhir.ch/ig/ch-core/6.0.0/StructureDefinition-ch-core-practitionerrole.html">CH Core PractitionerRole</a></p></div><p><b>practitioner</b>: <a href="Bundle-1-tvt-document-with-sr-and-form.html#Practitioner_PeterPresto">Practitioner Peter Presto (official)</a></p><p><b>organization</b>: <a href="Bundle-0-best-practice-document-with-sr.html#Organization_Gruppenpraxis">Organization Gruppenpraxis Olten</a></p></div>
        </text>
        <practitioner>
          <reference value="Practitioner/PeterPresto"/>
        </practitioner>
        <organization>
          <reference value="Organization/Gruppenpraxis"/>
        </organization>
      </PractitionerRole>
    </resource>
  </entry>
  <entry>
    <fullUrl value="http://example.com/fhir/Practitioner/MarcMustermann"/>
    <resource>
      <Practitioner>
        <id value="MarcMustermann"/>
        <meta>
          <profile value="http://fhir.ch/ig/ch-core/StructureDefinition/ch-core-practitioner"/>
        </meta>
        <text>
          <status value="generated"/><div xmlns="http://www.w3.org/1999/xhtml"><a name="Practitioner_MarcMustermann"> </a><p class="res-header-id"><b>Generated Narrative: Practitioner MarcMustermann</b></p><a name="MarcMustermann"> </a><a name="hcMarcMustermann"> </a><div style="display: inline-block; background-color: #d9e0e7; padding: 6px; margin: 4px; border: 1px solid #8da1b4; border-radius: 5px; line-height: 60%"><p style="margin-bottom: 0px"/><p style="margin-bottom: 0px">Profile: <a href="http://fhir.ch/ig/ch-core/6.0.0/StructureDefinition-ch-core-practitioner.html">CH Core Practitioner</a></p></div><p><b>identifier</b>: <a href="https://www.gs1.org/standards/id-keys/gln" title="Global Location Number">GLN</a>/7601000050700, <code>urn:oid:2.16.756.5.30.1.123.100.2.1.1</code>/L248519</p><p><b>name</b>: Marc Mustermann (Official)</p><p><b>telecom</b>: ph: 033 444 22 11(Work), <a href="mailto:marc.mustermann@gruppenpraxis.ch">marc.mustermann@gruppenpraxis.ch</a></p></div>
        </text>
        <identifier>
          <system value="urn:oid:2.51.1.3"/>
          <value value="7601000050700"/>
        </identifier>
        <identifier>
          <system value="urn:oid:2.16.756.5.30.1.123.100.2.1.1"/>
          <value value="L248519"/>
        </identifier>
        <name>
          <use value="official"/>
          <family value="Mustermann"/>
          <given value="Marc"/>
          <prefix value="Dr. med.">
            <extension url="http://hl7.org/fhir/StructureDefinition/iso21090-EN-qualifier">
              <valueCode value="AC"/>
            </extension>
          </prefix>
        </name>
        <telecom>
          <system value="phone"/>
          <value value="033 444 22 11"/>
          <use value="work"/>
        </telecom>
        <telecom>
          <system value="email"/>
          <value value="marc.mustermann@gruppenpraxis.ch"/>
          <use value="work"/>
        </telecom>
      </Practitioner>
    </resource>
  </entry>
  <entry>
    <fullUrl value="http://example.com/fhir/PractitionerRole/MarcMustermannGruppenpraxis"/>
    <resource>
      <PractitionerRole>
        <id value="MarcMustermannGruppenpraxis"/>
        <meta>
          <profile value="http://fhir.ch/ig/ch-core/StructureDefinition/ch-core-practitionerrole"/>
        </meta>
        <text>
          <status value="generated"/><div xmlns="http://www.w3.org/1999/xhtml"><a name="PractitionerRole_MarcMustermannGruppenpraxis"> </a><p class="res-header-id"><b>Generated Narrative: PractitionerRole MarcMustermannGruppenpraxis</b></p><a name="MarcMustermannGruppenpraxis"> </a><a name="hcMarcMustermannGruppenpraxis"> </a><div style="display: inline-block; background-color: #d9e0e7; padding: 6px; margin: 4px; border: 1px solid #8da1b4; border-radius: 5px; line-height: 60%"><p style="margin-bottom: 0px"/><p style="margin-bottom: 0px">Profile: <a href="http://fhir.ch/ig/ch-core/6.0.0/StructureDefinition-ch-core-practitionerrole.html">CH Core PractitionerRole</a></p></div><p><b>practitioner</b>: <a href="Bundle-0-best-practice-document-with-sr.html#Practitioner_MarcMustermann">Practitioner Marc Mustermann (official)</a></p><p><b>organization</b>: <a href="Bundle-0-best-practice-document-with-sr.html#Organization_Gruppenpraxis">Organization Gruppenpraxis Olten</a></p></div>
        </text>
        <practitioner>
          <reference value="Practitioner/MarcMustermann"/>
        </practitioner>
        <organization>
          <reference value="Organization/Gruppenpraxis"/>
        </organization>
      </PractitionerRole>
    </resource>
  </entry>
  <entry>
    <fullUrl value="http://example.com/fhir/Practitioner/EvaErlenmeyer"/>
    <resource>
      <Practitioner>
        <id value="EvaErlenmeyer"/>
        <meta>
          <profile value="http://fhir.ch/ig/ch-core/StructureDefinition/ch-core-practitioner"/>
        </meta>
        <text>
          <status value="generated"/><div xmlns="http://www.w3.org/1999/xhtml"><a name="Practitioner_EvaErlenmeyer"> </a><p class="res-header-id"><b>Generated Narrative: Practitioner EvaErlenmeyer</b></p><a name="EvaErlenmeyer"> </a><a name="hcEvaErlenmeyer"> </a><div style="display: inline-block; background-color: #d9e0e7; padding: 6px; margin: 4px; border: 1px solid #8da1b4; border-radius: 5px; line-height: 60%"><p style="margin-bottom: 0px"/><p style="margin-bottom: 0px">Profile: <a href="http://fhir.ch/ig/ch-core/6.0.0/StructureDefinition-ch-core-practitioner.html">CH Core Practitioner</a></p></div><p><b>identifier</b>: <a href="https://www.gs1.org/standards/id-keys/gln" title="Global Location Number">GLN</a>/7601000050717, <code>urn:oid:2.16.756.5.30.1.123.100.2.1.1</code>/Y274589</p><p><b>name</b>: Eva Erlenmeyer (Official)</p><p><b>telecom</b>: ph: 033 444 55 66(Work), <a href="mailto:eva.erlenmeyer@labor-pipette.ch">eva.erlenmeyer@labor-pipette.ch</a></p></div>
        </text>
        <identifier>
          <system value="urn:oid:2.51.1.3"/>
          <value value="7601000050717"/>
        </identifier>
        <identifier>
          <system value="urn:oid:2.16.756.5.30.1.123.100.2.1.1"/>
          <value value="Y274589"/>
        </identifier>
        <name>
          <use value="official"/>
          <family value="Erlenmeyer"/>
          <given value="Eva"/>
          <prefix value="Dr. med.">
            <extension url="http://hl7.org/fhir/StructureDefinition/iso21090-EN-qualifier">
              <valueCode value="AC"/>
            </extension>
          </prefix>
        </name>
        <telecom>
          <system value="phone"/>
          <value value="033 444 55 66"/>
          <use value="work"/>
        </telecom>
        <telecom>
          <system value="email"/>
          <value value="eva.erlenmeyer@labor-pipette.ch"/>
          <use value="work"/>
        </telecom>
      </Practitioner>
    </resource>
  </entry>
  <entry>
    <fullUrl value="http://example.com/fhir/Organization/LaborPipette"/>
    <resource>
      <Organization>
        <id value="LaborPipette"/>
        <meta>
          <profile value="http://fhir.ch/ig/ch-core/StructureDefinition/ch-core-organization"/>
        </meta>
        <text>
          <status value="generated"/><div xmlns="http://www.w3.org/1999/xhtml"><a name="Organization_LaborPipette"> </a><p class="res-header-id"><b>Generated Narrative: Organization LaborPipette</b></p><a name="LaborPipette"> </a><a name="hcLaborPipette"> </a><div style="display: inline-block; background-color: #d9e0e7; padding: 6px; margin: 4px; border: 1px solid #8da1b4; border-radius: 5px; line-height: 60%"><p style="margin-bottom: 0px"/><p style="margin-bottom: 0px">Profile: <a href="http://fhir.ch/ig/ch-core/6.0.0/StructureDefinition-ch-core-organization.html">CH Core Organization</a></p></div><p><b>identifier</b>: <a href="https://www.gs1.org/standards/id-keys/gln" title="Global Location Number">GLN</a>/7601000234407</p><p><b>name</b>: Labor Pipette</p><p><b>telecom</b>: <a href="tel:+41223345566">+41223345566</a>, <a href="mailto:info@labor-pipette.ch">info@labor-pipette.ch</a>, <a href="http://www.labor-pipette.ch">http://www.labor-pipette.ch</a></p><p><b>address</b>: Laborstrasse 23 Olten 4600 CH </p></div>
        </text>
        <identifier>
          <system value="urn:oid:2.51.1.3"/>
          <value value="7601000234407"/>
        </identifier>
        <name value="Labor Pipette"/>
        <telecom>
          <system value="phone"/>
          <value value="+41223345566"/>
          <use value="work"/>
        </telecom>
        <telecom>
          <system value="email"/>
          <value value="info@labor-pipette.ch"/>
          <use value="work"/>
        </telecom>
        <telecom>
          <system value="url"/>
          <value value="http://www.labor-pipette.ch"/>
          <use value="work"/>
        </telecom>
        <address>
          <line value="Laborstrasse 23"/>
          <city value="Olten"/>
          <postalCode value="4600"/>
          <country value="CH"/>
        </address>
      </Organization>
    </resource>
  </entry>
  <entry>
    <fullUrl value="http://example.com/fhir/PractitionerRole/EvaErlenmeyerLaborPipette"/>
    <resource>
      <PractitionerRole>
        <id value="EvaErlenmeyerLaborPipette"/>
        <meta>
          <profile value="http://fhir.ch/ig/ch-core/StructureDefinition/ch-core-practitionerrole"/>
        </meta>
        <text>
          <status value="generated"/><div xmlns="http://www.w3.org/1999/xhtml"><a name="PractitionerRole_EvaErlenmeyerLaborPipette"> </a><p class="res-header-id"><b>Generated Narrative: PractitionerRole EvaErlenmeyerLaborPipette</b></p><a name="EvaErlenmeyerLaborPipette"> </a><a name="hcEvaErlenmeyerLaborPipette"> </a><div style="display: inline-block; background-color: #d9e0e7; padding: 6px; margin: 4px; border: 1px solid #8da1b4; border-radius: 5px; line-height: 60%"><p style="margin-bottom: 0px"/><p style="margin-bottom: 0px">Profile: <a href="http://fhir.ch/ig/ch-core/6.0.0/StructureDefinition-ch-core-practitionerrole.html">CH Core PractitionerRole</a></p></div><p><b>identifier</b>: <code>urn:oid:2.16.756.5.30.1.123.100.2.1.1</code>/K333333</p><p><b>practitioner</b>: <a href="Bundle-0-best-practice-document-with-sr.html#Practitioner_EvaErlenmeyer">Practitioner Eva Erlenmeyer (official)</a></p><p><b>organization</b>: <a href="Bundle-0-best-practice-document-with-sr.html#Organization_LaborPipette">Organization Labor Pipette</a></p></div>
        </text>
        <identifier>
          <system value="urn:oid:2.16.756.5.30.1.123.100.2.1.1"/>
          <value value="K333333"/>
        </identifier>
        <practitioner>
          <reference value="Practitioner/EvaErlenmeyer"/>
        </practitioner>
        <organization>
          <reference value="Organization/LaborPipette"/>
        </organization>
      </PractitionerRole>
    </resource>
  </entry>
  <entry>
    <fullUrl value="http://example.com/fhir/Specimen/Serum-2-pertussis"/>
    <resource>
      <Specimen>
        <id value="Serum-2-pertussis"/>
        <text>
          <status value="generated"/><div xmlns="http://www.w3.org/1999/xhtml"><a name="Specimen_Serum-2-pertussis"> </a><p class="res-header-id"><b>Generated Narrative: Specimen Serum-2-pertussis</b></p><a name="Serum-2-pertussis"> </a><a name="hcSerum-2-pertussis"> </a><p><b>identifier</b>: 48736-12345-75465</p><p><b>accessionIdentifier</b>: 4e88a-12345-dd888</p><p><b>status</b>: Available</p><p><b>type</b>: <span title="Codes:{http://snomed.info/sct 119364003}">Serum specimen (specimen)</span></p><p><b>subject</b>: <a href="Bundle-2-pertussis-document-with-sr-and-form.html#Patient_EmilKummer">Emil Kummer  Male, DoB: 2017-05-05 ( urn:oid:2.16.756.5.30.1.123.100.1.1.1#80756011110123400004)</a></p><h3>Collections</h3><table class="grid"><tr><td style="display: none">-</td><td><b>Collector</b></td><td><b>Collected[x]</b></td></tr><tr><td style="display: none">*</td><td><a href="Bundle-1-tvt-document-with-sr-and-form.html#Practitioner_PeterPresto">Practitioner Peter Presto (official)</a></td><td>2015-08-16 06:40:17+0000</td></tr></table><h3>Containers</h3><table class="grid"><tr><td style="display: none">-</td><td><b>Type</b></td></tr><tr><td style="display: none">*</td><td><span title="Codes:{http://snomed.info/sct 702304001}">Microcapillary blood transfer tube, clot activator (physical object)</span></td></tr></table></div>
        </text>
        <identifier>
          <value value="48736-12345-75465"/>
        </identifier>
        <accessionIdentifier>
          <value value="4e88a-12345-dd888"/>
        </accessionIdentifier>
        <status value="available"/>
        <type>
          <coding>
            <system value="http://snomed.info/sct"/>
            <code value="119364003"/>
            <display value="Serum specimen (specimen)"/>
          </coding>
        </type>
        <subject>
          <reference value="Patient/EmilKummer"/>
        </subject>
        <collection>
          <collector>
            <reference value="Practitioner/PeterPresto"/>
          </collector>
          <collectedDateTime value="2015-08-16T06:40:17Z"/>
        </collection>
        <container>
          <type>
            <coding>
              <system value="http://snomed.info/sct"/>
              <code value="702304001"/>
              <display value="Microcapillary blood transfer tube, clot activator (physical object)"/>
            </coding>
          </type>
        </container>
      </Specimen>
    </resource>
  </entry>
  <entry>
    <fullUrl value="http://example.com/fhir/Specimen/ThroatSwab-2-pertussis"/>
    <resource>
      <Specimen>
        <id value="ThroatSwab-2-pertussis"/>
        <text>
          <status value="generated"/><div xmlns="http://www.w3.org/1999/xhtml"><a name="Specimen_ThroatSwab-2-pertussis"> </a><p class="res-header-id"><b>Generated Narrative: Specimen ThroatSwab-2-pertussis</b></p><a name="ThroatSwab-2-pertussis"> </a><a name="hcThroatSwab-2-pertussis"> </a><p><b>identifier</b>: 48736-222333-75465</p><p><b>accessionIdentifier</b>: 4e88a-bc987-dd888</p><p><b>status</b>: Available</p><p><b>type</b>: <span title="Codes:{http://snomed.info/sct 258529004}">Throat swab (specimen)</span></p><p><b>subject</b>: <a href="Bundle-2-pertussis-document-with-sr-and-form.html#Patient_EmilKummer">Emil Kummer  Male, DoB: 2017-05-05 ( urn:oid:2.16.756.5.30.1.123.100.1.1.1#80756011110123400004)</a></p><p><b>receivedTime</b>: 2023-12-01 16:40:17+0000</p><p><b>request</b>: <a href="Bundle-2-pertussis-document-with-sr-and-form.html#ServiceRequest_2-pertussis-ServiceRequest">ServiceRequest Respiratory disease screening (procedure)</a></p><h3>Collections</h3><table class="grid"><tr><td style="display: none">-</td><td><b>Collector</b></td><td><b>Collected[x]</b></td><td><b>Method</b></td><td><b>BodySite</b></td></tr><tr><td style="display: none">*</td><td><a href="Bundle-1-tvt-document-with-sr-and-form.html#Practitioner_PeterPresto">Practitioner Peter Presto (official)</a></td><td>2023-12-01 06:40:17+0000</td><td><span title="Codes:{http://snomed.info/sct 418932006}">Oral swab (specimen)</span></td><td><span title="Codes:{http://snomed.info/sct 312535008}">Pharynx and/or larynx structures (body structure)</span></td></tr></table><h3>Containers</h3><table class="grid"><tr><td style="display: none">-</td><td><b>Identifier</b></td><td><b>Description</b></td><td><b>Type</b></td></tr><tr><td style="display: none">*</td><td>4e88a-bc987-dd888-12345</td><td>ESwab 486C tubes Copan</td><td><span title="Codes:{http://snomed.info/sct 706053007}">General specimen container (physical object)</span></td></tr></table><p><b>note</b>: </p><blockquote><div><p>Some notes to Sample</p>
</div></blockquote></div>
        </text>
        <identifier>
          <value value="48736-222333-75465"/>
        </identifier>
        <accessionIdentifier>
          <value value="4e88a-bc987-dd888"/>
        </accessionIdentifier>
        <status value="available"/>
        <type>
          <coding>
            <system value="http://snomed.info/sct"/>
            <code value="258529004"/>
            <display value="Throat swab (specimen)"/>
          </coding>
        </type>
        <subject>
          <reference value="Patient/EmilKummer"/>
        </subject>
        <receivedTime value="2023-12-01T16:40:17Z"/>
        <request>
          <reference value="ServiceRequest/2-pertussis-ServiceRequest"/>
        </request>
        <collection>
          <collector>
            <reference value="Practitioner/PeterPresto"/>
          </collector>
          <collectedDateTime value="2023-12-01T06:40:17Z"/>
          <method>
            <coding>
              <system value="http://snomed.info/sct"/>
              <code value="418932006"/>
              <display value="Oral swab (specimen)"/>
            </coding>
          </method>
          <bodySite>
            <coding>
              <system value="http://snomed.info/sct"/>
              <code value="312535008"/>
              <display value="Pharynx and/or larynx structures (body structure)"/>
            </coding>
          </bodySite>
        </collection>
        <container>
          <identifier>
            <value value="4e88a-bc987-dd888-12345"/>
          </identifier>
          <description value="ESwab 486C tubes Copan"/>
          <type>
            <coding>
              <system value="http://snomed.info/sct"/>
              <code value="706053007"/>
              <display value="General specimen container (physical object)"/>
            </coding>
          </type>
        </container>
        <note>
          <text value="Some notes to Sample"/>
        </note>
      </Specimen>
    </resource>
  </entry>
  <entry>
    <fullUrl value="http://example.com/fhir/Specimen/Blood-2-pertussis"/>
    <resource>
      <Specimen>
        <id value="Blood-2-pertussis"/>
        <text>
          <status value="generated"/><div xmlns="http://www.w3.org/1999/xhtml"><a name="Specimen_Blood-2-pertussis"> </a><p class="res-header-id"><b>Generated Narrative: Specimen Blood-2-pertussis</b></p><a name="Blood-2-pertussis"> </a><a name="hcBlood-2-pertussis"> </a><p><b>status</b>: Available</p><p><b>type</b>: <span title="Codes:{http://snomed.info/sct 119297000}">Blood sample</span></p><p><b>subject</b>: <a href="Bundle-2-pertussis-document-with-sr-and-form.html#Patient_EmilKummer">Emil Kummer  Male, DoB: 2017-05-05 ( urn:oid:2.16.756.5.30.1.123.100.1.1.1#80756011110123400004)</a></p><h3>Collections</h3><table class="grid"><tr><td style="display: none">-</td><td><b>Collector</b></td><td><b>Collected[x]</b></td><td><b>BodySite</b></td></tr><tr><td style="display: none">*</td><td><a href="Bundle-1-tvt-document-with-sr-and-form.html#Practitioner_PeterPresto">Practitioner Peter Presto (official)</a></td><td>2015-08-16 06:40:17+0000</td><td><span title="Codes:{http://snomed.info/sct 49094006}">Structure of capillary of skin (body structure)</span></td></tr></table><h3>Containers</h3><table class="grid"><tr><td style="display: none">-</td><td><b>Type</b></td></tr><tr><td style="display: none">*</td><td><span title="Codes:{http://snomed.info/sct 702306004}">Microcapillary blood transfer tube, ethylene diamine tetraacetic acid (physical object)</span></td></tr></table></div>
        </text>
        <status value="available"/>
        <type>
          <coding>
            <system value="http://snomed.info/sct"/>
            <code value="119297000"/>
            <display value="Blood sample"/>
          </coding>
        </type>
        <subject>
          <reference value="Patient/EmilKummer"/>
        </subject>
        <collection>
          <collector>
            <reference value="Practitioner/PeterPresto"/>
          </collector>
          <collectedDateTime value="2015-08-16T06:40:17Z"/>
          <bodySite>
            <coding>
              <system value="http://snomed.info/sct"/>
              <code value="49094006"/>
              <display value="Structure of capillary of skin (body structure)"/>
            </coding>
          </bodySite>
        </collection>
        <container>
          <type>
            <coding>
              <system value="http://snomed.info/sct"/>
              <code value="702306004"/>
              <display value="Microcapillary blood transfer tube, ethylene diamine tetraacetic acid (physical object)"/>
            </coding>
          </type>
        </container>
      </Specimen>
    </resource>
  </entry>
  <entry>
    <fullUrl value="http://example.com/fhir/ServiceRequest/2-pertussis-ServiceRequest"/>
    <resource>
      <ServiceRequest>
        <id value="2-pertussis-ServiceRequest"/>
        <meta>
          <profile value="http://fhir.ch/ig/ch-lab-order/StructureDefinition/ch-lab-order-SR"/>
        </meta>
        <text>
          <status value="generated"/><div xmlns="http://www.w3.org/1999/xhtml"><a name="ServiceRequest_2-pertussis-ServiceRequest"> </a><p class="res-header-id"><b>Generated Narrative: ServiceRequest 2-pertussis-ServiceRequest</b></p><a name="2-pertussis-ServiceRequest"> </a><a name="hc2-pertussis-ServiceRequest"> </a><div style="display: inline-block; background-color: #d9e0e7; padding: 6px; margin: 4px; border: 1px solid #8da1b4; border-radius: 5px; line-height: 60%"><p style="margin-bottom: 0px"/><p style="margin-bottom: 0px">Profile: <a href="StructureDefinition-ch-lab-order-SR.html">CH LAB-Order ServiceRequest</a></p></div><p><b>identifier</b>: Placer Identifier/Y274589</p><p><b>status</b>: Active</p><p><b>intent</b>: Original Order</p><p><b>priority</b>: Urgent</p><p><b>code</b>: <span title="Codes:{http://snomed.info/sct 171228002}">Laboratory Order</span></p><p><b>orderDetail</b>: <span title="Codes:{http://terminology.hl7.org/CodeSystem/v2-0119 NW}">Order Control code, New order/service</span></p><p><b>subject</b>: <a href="Bundle-2-pertussis-document-with-sr-and-form.html#Patient_EmilKummer">Emil Kummer  Male, DoB: 2017-05-05 ( urn:oid:2.16.756.5.30.1.123.100.1.1.1#80756011110123400004)</a></p><p><b>requester</b>: <a href="Bundle-1-tvt-document-with-sr-and-form.html#PractitionerRole_PeterPrestoGruppenpraxis">PractitionerRole</a></p><p><b>reasonCode</b>: <span title="Codes:{http://snomed.info/sct 772146005}">Pertussis suspected (situation)</span></p></div>
        </text>
        <identifier>
          <type>
            <coding>
              <system value="http://terminology.hl7.org/CodeSystem/v2-0203"/>
              <code value="PLAC"/>
              <display value="Placer Identifier"/>
            </coding>
          </type>
          <system value="urn:oid:2.16.756.5.30.1.123.100.2.1.1"/>
          <value value="Y274589"/>
        </identifier>
        <status value="active"/>
        <intent value="original-order"/>
        <priority value="urgent"/>
        <code>
          <coding>
            <system value="http://snomed.info/sct"/>
            <code value="171228002"/>
            <display value="Respiratory disease screening (procedure)"/>
          </coding>
          <text value="Laboratory Order"/>
        </code>
        <orderDetail>
          <coding>
            <system value="http://terminology.hl7.org/CodeSystem/v2-0119"/>
            <code value="NW"/>
            <display value="New order/service"/>
          </coding>
          <text value="Order Control code, New order/service"/>
        </orderDetail>
        <subject>
          <reference value="Patient/EmilKummer"/>
        </subject>
        <requester>
          <reference value="PractitionerRole/PeterPrestoGruppenpraxis"/>
        </requester>
        <reasonCode>
          <coding>
            <system value="http://snomed.info/sct"/>
            <code value="772146005"/>
          </coding>
          <text value="Pertussis suspected (situation)"/>
        </reasonCode>
      </ServiceRequest>
    </resource>
  </entry>
  <entry>
    <fullUrl value="http://example.com/fhir/ServiceRequest/2-pertussis-ServiceRequestCBC"/>
    <resource>
      <ServiceRequest>
        <id value="2-pertussis-ServiceRequestCBC"/>
        <meta>
          <profile value="http://fhir.ch/ig/ch-lab-order/StructureDefinition/ch-lab-order-SR"/>
        </meta>
        <text>
          <status value="generated"/><div xmlns="http://www.w3.org/1999/xhtml"><a name="ServiceRequest_2-pertussis-ServiceRequestCBC"> </a><p class="res-header-id"><b>Generated Narrative: ServiceRequest 2-pertussis-ServiceRequestCBC</b></p><a name="2-pertussis-ServiceRequestCBC"> </a><a name="hc2-pertussis-ServiceRequestCBC"> </a><div style="display: inline-block; background-color: #d9e0e7; padding: 6px; margin: 4px; border: 1px solid #8da1b4; border-radius: 5px; line-height: 60%"><p style="margin-bottom: 0px"/><p style="margin-bottom: 0px">Profile: <a href="StructureDefinition-ch-lab-order-SR.html">CH LAB-Order ServiceRequest</a></p></div><p><b>identifier</b>: Placer Identifier/Y274589</p><p><b>basedOn</b>: <a href="Bundle-2-pertussis-document-with-sr-and-form.html#ServiceRequest_2-pertussis-ServiceRequest">ServiceRequest Respiratory disease screening (procedure)</a></p><p><b>status</b>: Active</p><p><b>intent</b>: Original Order</p><p><b>priority</b>: Urgent</p><p><b>code</b>: <span title="Codes:{http://loinc.org 58410-2}, {http://loinc.org 1988-5}">Laboratory Order</span></p><p><b>orderDetail</b>: <span title="Codes:{http://terminology.hl7.org/CodeSystem/v2-0119 NW}">Order Control code, New order/service</span></p><p><b>subject</b>: <a href="Bundle-2-pertussis-document-with-sr-and-form.html#Patient_EmilKummer">Emil Kummer  Male, DoB: 2017-05-05 ( urn:oid:2.16.756.5.30.1.123.100.1.1.1#80756011110123400004)</a></p><p><b>requester</b>: <a href="Bundle-1-tvt-document-with-sr-and-form.html#PractitionerRole_PeterPrestoGruppenpraxis">PractitionerRole</a></p><p><b>reasonCode</b>: <span title="Codes:{http://snomed.info/sct 772146005}">Pertussis suspected (situation)</span></p><p><b>specimen</b>: <a href="Bundle-2-pertussis-document-with-sr-and-form.html#Specimen_Blood-2-pertussis">Specimen: status = available; type = Blood sample</a></p></div>
        </text>
        <identifier>
          <type>
            <coding>
              <system value="http://terminology.hl7.org/CodeSystem/v2-0203"/>
              <code value="PLAC"/>
              <display value="Placer Identifier"/>
            </coding>
          </type>
          <system value="urn:oid:2.16.756.5.30.1.123.100.2.1.1"/>
          <value value="Y274589"/>
        </identifier>
        <basedOn>
          <reference value="ServiceRequest/2-pertussis-ServiceRequest"/>
        </basedOn>
        <status value="active"/>
        <intent value="original-order"/>
        <priority value="urgent"/>
        <code>
          <coding>
            <system value="http://loinc.org"/>
            <code value="58410-2"/>
            <display value="CBC panel - Blood by Automated count"/>
          </coding>
          <coding>
            <system value="http://loinc.org"/>
            <code value="1988-5"/>
            <display value="C reactive protein [Mass/Volume] in Serum or Plasma"/>
          </coding>
          <text value="Laboratory Order"/>
        </code>
        <orderDetail>
          <coding>
            <system value="http://terminology.hl7.org/CodeSystem/v2-0119"/>
            <code value="NW"/>
            <display value="New order/service"/>
          </coding>
          <text value="Order Control code, New order/service"/>
        </orderDetail>
        <subject>
          <reference value="Patient/EmilKummer"/>
        </subject>
        <requester>
          <reference value="PractitionerRole/PeterPrestoGruppenpraxis"/>
        </requester>
        <reasonCode>
          <coding>
            <system value="http://snomed.info/sct"/>
            <code value="772146005"/>
          </coding>
          <text value="Pertussis suspected (situation)"/>
        </reasonCode>
        <specimen>
          <reference value="Specimen/Blood-2-pertussis"/>
        </specimen>
      </ServiceRequest>
    </resource>
  </entry>
  <entry>
    <fullUrl value="http://example.com/fhir/ServiceRequest/2-pertussis-ServiceRequestCRP"/>
    <resource>
      <ServiceRequest>
        <id value="2-pertussis-ServiceRequestCRP"/>
        <meta>
          <profile value="http://fhir.ch/ig/ch-lab-order/StructureDefinition/ch-lab-order-SR"/>
        </meta>
        <text>
          <status value="generated"/><div xmlns="http://www.w3.org/1999/xhtml"><a name="ServiceRequest_2-pertussis-ServiceRequestCRP"> </a><p class="res-header-id"><b>Generated Narrative: ServiceRequest 2-pertussis-ServiceRequestCRP</b></p><a name="2-pertussis-ServiceRequestCRP"> </a><a name="hc2-pertussis-ServiceRequestCRP"> </a><div style="display: inline-block; background-color: #d9e0e7; padding: 6px; margin: 4px; border: 1px solid #8da1b4; border-radius: 5px; line-height: 60%"><p style="margin-bottom: 0px"/><p style="margin-bottom: 0px">Profile: <a href="StructureDefinition-ch-lab-order-SR.html">CH LAB-Order ServiceRequest</a></p></div><p><b>identifier</b>: Placer Identifier/Y274589</p><p><b>basedOn</b>: <a href="Bundle-2-pertussis-document-with-sr-and-form.html#ServiceRequest_2-pertussis-ServiceRequest">ServiceRequest Respiratory disease screening (procedure)</a></p><p><b>status</b>: Active</p><p><b>intent</b>: Original Order</p><p><b>priority</b>: Urgent</p><p><b>code</b>: <span title="Codes:{http://loinc.org 58410-2}, {http://loinc.org 1988-5}">Laboratory Order</span></p><p><b>orderDetail</b>: <span title="Codes:{http://terminology.hl7.org/CodeSystem/v2-0119 NW}">Order Control code, New order/service</span></p><p><b>subject</b>: <a href="Bundle-2-pertussis-document-with-sr-and-form.html#Patient_EmilKummer">Emil Kummer  Male, DoB: 2017-05-05 ( urn:oid:2.16.756.5.30.1.123.100.1.1.1#80756011110123400004)</a></p><p><b>requester</b>: <a href="Bundle-1-tvt-document-with-sr-and-form.html#PractitionerRole_PeterPrestoGruppenpraxis">PractitionerRole</a></p><p><b>reasonCode</b>: <span title="Codes:{http://snomed.info/sct 772146005}">Pertussis suspected (situation)</span></p><p><b>specimen</b>: <a href="Bundle-2-pertussis-document-with-sr-and-form.html#Specimen_Serum-2-pertussis">Specimen: identifier = 48736-12345-75465; accessionIdentifier = 4e88a-12345-dd888; status = available; type = Serum specimen (specimen)</a></p></div>
        </text>
        <identifier>
          <type>
            <coding>
              <system value="http://terminology.hl7.org/CodeSystem/v2-0203"/>
              <code value="PLAC"/>
              <display value="Placer Identifier"/>
            </coding>
          </type>
          <system value="urn:oid:2.16.756.5.30.1.123.100.2.1.1"/>
          <value value="Y274589"/>
        </identifier>
        <basedOn>
          <reference value="ServiceRequest/2-pertussis-ServiceRequest"/>
        </basedOn>
        <status value="active"/>
        <intent value="original-order"/>
        <priority value="urgent"/>
        <code>
          <coding>
            <system value="http://loinc.org"/>
            <code value="58410-2"/>
            <display value="CBC panel - Blood by Automated count"/>
          </coding>
          <coding>
            <system value="http://loinc.org"/>
            <code value="1988-5"/>
            <display value="C reactive protein [Mass/Volume] in Serum or Plasma"/>
          </coding>
          <text value="Laboratory Order"/>
        </code>
        <orderDetail>
          <coding>
            <system value="http://terminology.hl7.org/CodeSystem/v2-0119"/>
            <code value="NW"/>
            <display value="New order/service"/>
          </coding>
          <text value="Order Control code, New order/service"/>
        </orderDetail>
        <subject>
          <reference value="Patient/EmilKummer"/>
        </subject>
        <requester>
          <reference value="PractitionerRole/PeterPrestoGruppenpraxis"/>
        </requester>
        <reasonCode>
          <coding>
            <system value="http://snomed.info/sct"/>
            <code value="772146005"/>
          </coding>
          <text value="Pertussis suspected (situation)"/>
        </reasonCode>
        <specimen>
          <reference value="Specimen/Serum-2-pertussis"/>
        </specimen>
      </ServiceRequest>
    </resource>
  </entry>
  <entry>
    <fullUrl value="http://example.com/fhir/ServiceRequest/2-pertussis-ServiceRequestAddTest"/>
    <resource>
      <ServiceRequest>
        <id value="2-pertussis-ServiceRequestAddTest"/>
        <meta>
          <profile value="http://fhir.ch/ig/ch-lab-order/StructureDefinition/ch-lab-order-SR"/>
        </meta>
        <text>
          <status value="generated"/><div xmlns="http://www.w3.org/1999/xhtml"><a name="ServiceRequest_2-pertussis-ServiceRequestAddTest"> </a><p class="res-header-id"><b>Generated Narrative: ServiceRequest 2-pertussis-ServiceRequestAddTest</b></p><a name="2-pertussis-ServiceRequestAddTest"> </a><a name="hc2-pertussis-ServiceRequestAddTest"> </a><div style="display: inline-block; background-color: #d9e0e7; padding: 6px; margin: 4px; border: 1px solid #8da1b4; border-radius: 5px; line-height: 60%"><p style="margin-bottom: 0px"/><p style="margin-bottom: 0px">Profile: <a href="StructureDefinition-ch-lab-order-SR.html">CH LAB-Order ServiceRequest</a></p></div><p><b>identifier</b>: Placer Identifier/Y274589</p><p><b>basedOn</b>: <a href="Bundle-2-pertussis-document-with-sr-and-form.html#ServiceRequest_2-pertussis-ServiceRequest">ServiceRequest Respiratory disease screening (procedure)</a></p><p><b>status</b>: Active</p><p><b>intent</b>: Order</p><p><b>priority</b>: Urgent</p><p><b>code</b>: <span title="Codes:{http://loinc.org 90441-7}">Bordetella pertussis and Bordetella parapertussis DNA panel - Nasopharynx</span></p><p><b>orderDetail</b>: <span title="Codes:{http://terminology.hl7.org/CodeSystem/v2-0119 XO}">Order Control code, change order/service request</span></p><p><b>subject</b>: <a href="Bundle-2-pertussis-document-with-sr-and-form.html#Patient_EmilKummer">Emil Kummer  Male, DoB: 2017-05-05 ( urn:oid:2.16.756.5.30.1.123.100.1.1.1#80756011110123400004)</a></p><p><b>requester</b>: <a href="Bundle-1-tvt-document-with-sr-and-form.html#PractitionerRole_PeterPrestoGruppenpraxis">PractitionerRole</a></p><p><b>reasonCode</b>: <span title="Codes:{http://snomed.info/sct 772146005}">Pertussis suspected (situation)</span></p><p><b>specimen</b>: <a href="Bundle-2-pertussis-document-with-sr-and-form.html#Specimen_ThroatSwab-2-pertussis">Specimen: identifier = 48736-222333-75465; accessionIdentifier = 4e88a-bc987-dd888; status = available; type = Throat swab (specimen); receivedTime = 2023-12-01 16:40:17+0000; note = Some notes to Sample</a></p></div>
        </text>
        <identifier>
          <type>
            <coding>
              <system value="http://terminology.hl7.org/CodeSystem/v2-0203"/>
              <code value="PLAC"/>
              <display value="Placer Identifier"/>
            </coding>
          </type>
          <system value="urn:oid:2.16.756.5.30.1.123.100.2.1.1"/>
          <value value="Y274589"/>
        </identifier>
        <basedOn>
          <reference value="ServiceRequest/2-pertussis-ServiceRequest"/>
        </basedOn>
        <status value="active"/>
        <intent value="order"/>
        <priority value="urgent"/>
        <code>
          <coding>
            <system value="http://loinc.org"/>
            <code value="90441-7"/>
            <display value="Bordetella pertussis and Bordetella parapertussis DNA panel - Nasopharynx"/>
          </coding>
        </code>
        <orderDetail>
          <coding>
            <system value="http://terminology.hl7.org/CodeSystem/v2-0119"/>
            <code value="XO"/>
            <display value="Change order/service request"/>
          </coding>
          <text value="Order Control code, change order/service request"/>
        </orderDetail>
        <subject>
          <reference value="Patient/EmilKummer"/>
        </subject>
        <requester>
          <reference value="PractitionerRole/PeterPrestoGruppenpraxis"/>
        </requester>
        <reasonCode>
          <coding>
            <system value="http://snomed.info/sct"/>
            <code value="772146005"/>
          </coding>
          <text value="Pertussis suspected (situation)"/>
        </reasonCode>
        <specimen>
          <reference value="Specimen/ThroatSwab-2-pertussis"/>
        </specimen>
      </ServiceRequest>
    </resource>
  </entry>
</Bundle>