<?xml version="1.0" encoding="UTF-8"?>

<Bundle xmlns="http://hl7.org/fhir">
  <id value="0-best-practice-document-with-sr"/>
  <meta>
    <profile value="http://fhir.ch/ig/ch-lab-order/StructureDefinition/ch-lab-order-document-with-sr"/>
  </meta>
  <identifier>
    <system value="urn:ietf:rfc:3986"/>
    <value value="urn:uuid:26d3dff7-ab05-4737-a49c-5eccd33595f8"/>
  </identifier>
  <type value="document"/>
  <timestamp value="2023-04-01T20:18:41.341+00:00"/>
  <entry>
    <fullUrl value="http://example.com/fhir/Composition/0-best-practice"/>
    <resource>
      <Composition>
        <id value="0-best-practice"/>
        <meta>
          <profile value="http://fhir.ch/ig/ch-lab-order/StructureDefinition/ch-lab-order-composition-with-sr"/>
        </meta>
        <text>
          <status value="additional"/><div xmlns="http://www.w3.org/1999/xhtml"><div><a name="Composition_0-best-practice"> </a><h3>Control of Anticoagulation Effect</h3><p>Mrs Birgit Blum had an unfortunate fall while skiing and sustained a open tibial plateau fracture. She was transferred to the Kantonsspital, a centre hospital, by helicopter and is waiting there for her operation. The patient is administered Liquemin 5000 E s.c. daily to prevent thromboembolic events, and the effect. To monitor the effect of this treatment, regular blood tests are carried out to determine anti-Xa activity. A special sample vessel with citrate additive is used for this purpose. The sample must be centrifuged and cooled within one hour.</p></div></div>
        </text>
        <extension url="http://fhir.ch/ig/ch-orf/StructureDefinition/ch-orf-urgentnoficationcontactforthisdocument">
          <valueReference>
            <reference value="PractitionerRole/EvaErlenmeyerLaborPipette"/>
          </valueReference>
        </extension>
        <extension url="http://fhir.ch/ig/ch-orf/StructureDefinition/ch-orf-urgentnoficationcontactfortheresponsetothisdocument">
          <valueReference>
            <reference value="PractitionerRole/MarcMustermannGruppenpraxis"/>
          </valueReference>
        </extension>
        <extension url="http://fhir.ch/ig/ch-orf/StructureDefinition/ch-orf-receiver">
          <valueReference>
            <reference value="PractitionerRole/EvaErlenmeyerLaborPipette"/>
          </valueReference>
        </extension>
        <extension url="http://fhir.ch/ig/ch-orf/StructureDefinition/ch-orf-copyreceiver">
          <valueReference>
            <reference value="PractitionerRole/MarcMustermannGruppenpraxis"/>
          </valueReference>
        </extension>
        <extension url="http://fhir.ch/ig/ch-orf/StructureDefinition/ch-orf-copyreceiver">
          <valueReference>
            <reference value="Patient/BirgitBlum"/>
          </valueReference>
        </extension>
        <status value="final"/>
        <type>
          <coding>
            <system value="http://snomed.info/sct"/>
            <code value="721965002"/>
            <display value="Laboratory order (record artifact)"/>
          </coding>
        </type>
        <category>
          <coding>
            <system value="http://snomed.info/sct"/>
            <code value="721963009"/>
            <display value="Order (record artifact)"/>
          </coding>
        </category>
        <subject>
          <reference value="Patient/BirgitBlum"/>
        </subject>
        <date value="2025-03-05T11:46:09+02:00"/>
        <author>
          <reference value="PractitionerRole/MarcMustermannGruppenpraxis"/>
        </author>
        <title value="Laboratory order 0-best-practice"/>
        <section>
          <title value="Laboratory Order by Service Request 0-best-practice"/>
          <code>
            <coding>
              <system value="http://snomed.info/sct"/>
              <code value="721963009"/>
              <display value="Order (record artifact)"/>
            </coding>
          </code>
          <entry>
            <reference value="ServiceRequest/0-best-practice-ServiceRequest-0"/>
          </entry>
          <entry>
            <reference value="ServiceRequest/0-best-practice-ServiceRequest-1"/>
          </entry>
          <entry>
            <reference value="ServiceRequest/0-best-practice-ServiceRequest-2"/>
          </entry>
          <entry>
            <reference value="ServiceRequest/0-best-practice-ServiceRequest-3"/>
          </entry>
          <entry>
            <reference value="ServiceRequest/0-best-practice-ServiceRequest-3-Hb"/>
          </entry>
          <entry>
            <reference value="ServiceRequest/0-best-practice-ServiceRequest-3-Ht"/>
          </entry>
        </section>
      </Composition>
    </resource>
  </entry>
  <entry>
    <fullUrl value="http://example.com/fhir/Patient/BirgitBlum"/>
    <resource>
      <Patient>
        <id value="BirgitBlum"/>
        <meta>
          <profile value="http://fhir.ch/ig/ch-core/StructureDefinition/ch-core-patient"/>
        </meta>
        <text>
          <status value="generated"/><div xmlns="http://www.w3.org/1999/xhtml"><a name="Patient_BirgitBlum"> </a><p class="res-header-id"><b>Generated Narrative: Patient BirgitBlum</b></p><a name="BirgitBlum"> </a><a name="hcBirgitBlum"> </a><div style="display: inline-block; background-color: #d9e0e7; padding: 6px; margin: 4px; border: 1px solid #8da1b4; border-radius: 5px; line-height: 60%"><p style="margin-bottom: 0px"/><p style="margin-bottom: 0px">Profile: <a href="http://fhir.ch/ig/ch-core/6.0.0/StructureDefinition-ch-core-patient.html">CH Core Patient</a></p></div><p style="border: 1px #661aff solid; background-color: #e6e6ff; padding: 10px;">Birgit Blum  Female, DoB: 1984-01-01 ( urn:oid:2.16.756.5.30.1.123.100.1.1.1#80756011110123400002)</p><hr/><table class="grid"><tr><td style="background-color: #f3f5da" title="Known Marital status of Patient">Marital Status:</td><td colspan="3"><span title="Codes:{http://fhir.ch/ig/ch-core/CodeSystem/ech-11-maritalstatus 5}">unverheiratet</span></td></tr><tr><td style="background-color: #f3f5da" title="Ways to contact the Patient">Contact Detail</td><td colspan="3"><ul><li>ph: 079 979 79 79(Home)</li><li><a href="mailto:Birgit.Blum@example.ch">Birgit.Blum@example.ch</a></li></ul></td></tr><tr><td style="background-color: #f3f5da" title="Language spoken">Language:</td><td colspan="3"><span title="Codes:{urn:ietf:bcp:47 de-CH}">Deutsch (Schweiz)</span> (preferred)</td></tr><tr><td style="background-color: #f3f5da" title="The registered place of birth of the patient. A sytem may use the address.text if they don't store the birthPlace address in discrete elements."><a href="http://hl7.org/fhir/extensions/5.3.0-ballot-tc1/StructureDefinition-patient-birthPlace.html">Patient Birth Place</a></td><td colspan="3">Zürich Schweiz </td></tr><tr><td style="background-color: #f3f5da" title="The place of origin of the patient."><a href="http://fhir.ch/ig/ch-core/6.0.0/StructureDefinition-ch-core-patient-ech-11-placeoforigin.html">Place of Origin according to eCH-0011</a></td><td colspan="3">Breitenbach BL </td></tr><tr><td style="background-color: #f3f5da" title="The patient's professed religious affiliations."><a href="http://hl7.org/fhir/extensions/5.3.0-ballot-tc1/StructureDefinition-patient-religion.html">Patient Religion</a></td><td colspan="3"><span title="Codes:{http://terminology.hl7.org/CodeSystem/v3-ReligiousAffiliation 1007}">Atheism</span></td></tr></table></div>
        </text>
        <extension url="http://hl7.org/fhir/StructureDefinition/patient-birthPlace">
          <valueAddress>
            <city value="Zürich"/>
            <country value="Schweiz"/>
          </valueAddress>
        </extension>
        <extension url="http://fhir.ch/ig/ch-core/StructureDefinition/ch-core-patient-ech-11-placeoforigin">
          <valueAddress>
            <city value="Breitenbach"/>
            <state value="BL"/>
          </valueAddress>
        </extension>
        <extension url="http://hl7.org/fhir/StructureDefinition/patient-religion">
          <valueCodeableConcept>
            <coding>
              <system value="http://terminology.hl7.org/CodeSystem/v3-ReligiousAffiliation"/>
              <code value="1007"/>
              <display value="Atheism"/>
            </coding>
          </valueCodeableConcept>
        </extension>
        <identifier>
          <system value="urn:oid:2.16.756.5.30.1.123.100.1.1.1"/>
          <value value="80756011110123400002"/>
        </identifier>
        <name>
          <family value="Blum"/>
          <given value="Birgit"/>
        </name>
        <telecom>
          <system value="phone"/>
          <value value="079 979 79 79"/>
          <use value="home"/>
        </telecom>
        <telecom>
          <system value="email"/>
          <value value="Birgit.Blum@example.ch"/>
        </telecom>
        <gender value="female"/>
        <birthDate value="1984-01-01"/>
        <maritalStatus>
          <coding>
            <system value="http://fhir.ch/ig/ch-core/CodeSystem/ech-11-maritalstatus"/>
            <code value="5"/>
            <display value="unverheiratet"/>
          </coding>
        </maritalStatus>
        <communication>
          <language>
            <coding>
              <system value="urn:ietf:bcp:47"/>
              <code value="de-CH"/>
            </coding>
            <text value="Deutsch (Schweiz)"/>
          </language>
          <preferred value="true"/>
        </communication>
      </Patient>
    </resource>
  </entry>
  <entry>
    <fullUrl value="http://example.com/fhir/Practitioner/MarcMustermann"/>
    <resource>
      <Practitioner>
        <id value="MarcMustermann"/>
        <meta>
          <profile value="http://fhir.ch/ig/ch-core/StructureDefinition/ch-core-practitioner"/>
        </meta>
        <text>
          <status value="generated"/><div xmlns="http://www.w3.org/1999/xhtml"><a name="Practitioner_MarcMustermann"> </a><p class="res-header-id"><b>Generated Narrative: Practitioner MarcMustermann</b></p><a name="MarcMustermann"> </a><a name="hcMarcMustermann"> </a><div style="display: inline-block; background-color: #d9e0e7; padding: 6px; margin: 4px; border: 1px solid #8da1b4; border-radius: 5px; line-height: 60%"><p style="margin-bottom: 0px"/><p style="margin-bottom: 0px">Profile: <a href="http://fhir.ch/ig/ch-core/6.0.0/StructureDefinition-ch-core-practitioner.html">CH Core Practitioner</a></p></div><p><b>identifier</b>: <a href="https://www.gs1.org/standards/id-keys/gln" title="Global Location Number">GLN</a>/7601000050700, <code>urn:oid:2.16.756.5.30.1.123.100.2.1.1</code>/L248519</p><p><b>name</b>: Marc Mustermann (Official)</p><p><b>telecom</b>: ph: 033 444 22 11(Work), <a href="mailto:marc.mustermann@gruppenpraxis.ch">marc.mustermann@gruppenpraxis.ch</a></p></div>
        </text>
        <identifier>
          <system value="urn:oid:2.51.1.3"/>
          <value value="7601000050700"/>
        </identifier>
        <identifier>
          <system value="urn:oid:2.16.756.5.30.1.123.100.2.1.1"/>
          <value value="L248519"/>
        </identifier>
        <name>
          <use value="official"/>
          <family value="Mustermann"/>
          <given value="Marc"/>
          <prefix value="Dr. med.">
            <extension url="http://hl7.org/fhir/StructureDefinition/iso21090-EN-qualifier">
              <valueCode value="AC"/>
            </extension>
          </prefix>
        </name>
        <telecom>
          <system value="phone"/>
          <value value="033 444 22 11"/>
          <use value="work"/>
        </telecom>
        <telecom>
          <system value="email"/>
          <value value="marc.mustermann@gruppenpraxis.ch"/>
          <use value="work"/>
        </telecom>
      </Practitioner>
    </resource>
  </entry>
  <entry>
    <fullUrl value="http://example.com/fhir/Organization/Gruppenpraxis"/>
    <resource>
      <Organization>
        <id value="Gruppenpraxis"/>
        <meta>
          <profile value="http://fhir.ch/ig/ch-core/StructureDefinition/ch-core-organization-epr"/>
        </meta>
        <text>
          <status value="generated"/><div xmlns="http://www.w3.org/1999/xhtml"><a name="Organization_Gruppenpraxis"> </a><p class="res-header-id"><b>Generated Narrative: Organization Gruppenpraxis</b></p><a name="Gruppenpraxis"> </a><a name="hcGruppenpraxis"> </a><div style="display: inline-block; background-color: #d9e0e7; padding: 6px; margin: 4px; border: 1px solid #8da1b4; border-radius: 5px; line-height: 60%"><p style="margin-bottom: 0px"/><p style="margin-bottom: 0px">Profile: <a href="http://fhir.ch/ig/ch-core/6.0.0/StructureDefinition-ch-core-organization-epr.html">CH Core Organization EPR</a></p></div><p><b>identifier</b>: <a href="https://www.gs1.org/standards/id-keys/gln" title="Global Location Number">GLN</a>/7601000241115</p><p><b>name</b>: Gruppenpraxis Olten</p><p><b>telecom</b>: <a href="tel:+41555556677">+41555556677</a>, <a href="mailto:info@gruppenpraxis.ch">info@gruppenpraxis.ch</a>, <a href="http://www.gruppenpraxis.ch">http://www.gruppenpraxis.ch</a></p><p><b>address</b>: Gerbergasse 12 Olten 4600 CH </p></div>
        </text>
        <identifier>
          <system value="urn:oid:2.51.1.3"/>
          <value value="7601000241115"/>
        </identifier>
        <name value="Gruppenpraxis Olten"/>
        <telecom>
          <system value="phone"/>
          <value value="+41555556677"/>
          <use value="work"/>
        </telecom>
        <telecom>
          <system value="email"/>
          <value value="info@gruppenpraxis.ch"/>
          <use value="work"/>
        </telecom>
        <telecom>
          <system value="url"/>
          <value value="http://www.gruppenpraxis.ch"/>
          <use value="work"/>
        </telecom>
        <address>
          <line value="Gerbergasse 12"/>
          <city value="Olten"/>
          <postalCode value="4600"/>
          <country value="CH"/>
        </address>
      </Organization>
    </resource>
  </entry>
  <entry>
    <fullUrl value="http://example.com/fhir/PractitionerRole/MarcMustermannGruppenpraxis"/>
    <resource>
      <PractitionerRole>
        <id value="MarcMustermannGruppenpraxis"/>
        <meta>
          <profile value="http://fhir.ch/ig/ch-core/StructureDefinition/ch-core-practitionerrole"/>
        </meta>
        <text>
          <status value="generated"/><div xmlns="http://www.w3.org/1999/xhtml"><a name="PractitionerRole_MarcMustermannGruppenpraxis"> </a><p class="res-header-id"><b>Generated Narrative: PractitionerRole MarcMustermannGruppenpraxis</b></p><a name="MarcMustermannGruppenpraxis"> </a><a name="hcMarcMustermannGruppenpraxis"> </a><div style="display: inline-block; background-color: #d9e0e7; padding: 6px; margin: 4px; border: 1px solid #8da1b4; border-radius: 5px; line-height: 60%"><p style="margin-bottom: 0px"/><p style="margin-bottom: 0px">Profile: <a href="http://fhir.ch/ig/ch-core/6.0.0/StructureDefinition-ch-core-practitionerrole.html">CH Core PractitionerRole</a></p></div><p><b>practitioner</b>: <a href="Bundle-0-best-practice-document-with-sr.html#Practitioner_MarcMustermann">Practitioner Marc Mustermann (official)</a></p><p><b>organization</b>: <a href="Bundle-0-best-practice-document-with-sr.html#Organization_Gruppenpraxis">Organization Gruppenpraxis Olten</a></p></div>
        </text>
        <practitioner>
          <reference value="Practitioner/MarcMustermann"/>
        </practitioner>
        <organization>
          <reference value="Organization/Gruppenpraxis"/>
        </organization>
      </PractitionerRole>
    </resource>
  </entry>
  <entry>
    <fullUrl value="http://example.com/fhir/Practitioner/HansHauser"/>
    <resource>
      <Practitioner>
        <id value="HansHauser"/>
        <meta>
          <profile value="http://fhir.ch/ig/ch-core/StructureDefinition/ch-core-practitioner"/>
        </meta>
        <text>
          <status value="generated"/><div xmlns="http://www.w3.org/1999/xhtml"><a name="Practitioner_HansHauser"> </a><p class="res-header-id"><b>Generated Narrative: Practitioner HansHauser</b></p><a name="HansHauser"> </a><a name="hcHansHauser"> </a><div style="display: inline-block; background-color: #d9e0e7; padding: 6px; margin: 4px; border: 1px solid #8da1b4; border-radius: 5px; line-height: 60%"><p style="margin-bottom: 0px"/><p style="margin-bottom: 0px">Profile: <a href="http://fhir.ch/ig/ch-core/6.0.0/StructureDefinition-ch-core-practitioner.html">CH Core Practitioner</a></p></div><p><b>identifier</b>: <a href="https://www.gs1.org/standards/id-keys/gln" title="Global Location Number">GLN</a>/7601000050700, <code>urn:oid:2.16.756.5.30.1.123.100.2.1.1</code>/L248519</p><p><b>name</b>: Hans Hauser (Official)</p><p><b>telecom</b>: ph: 038 888 22 11(Work), <a href="mailto:hans.hauser@gruppenpraxis.ch">hans.hauser@gruppenpraxis.ch</a></p></div>
        </text>
        <identifier>
          <system value="urn:oid:2.51.1.3"/>
          <value value="7601000050700"/>
        </identifier>
        <identifier>
          <system value="urn:oid:2.16.756.5.30.1.123.100.2.1.1"/>
          <value value="L248519"/>
        </identifier>
        <name>
          <use value="official"/>
          <family value="Hauser"/>
          <given value="Hans"/>
          <prefix value="Dr. med.">
            <extension url="http://hl7.org/fhir/StructureDefinition/iso21090-EN-qualifier">
              <valueCode value="AC"/>
            </extension>
          </prefix>
        </name>
        <telecom>
          <system value="phone"/>
          <value value="038 888 22 11"/>
          <use value="work"/>
        </telecom>
        <telecom>
          <system value="email"/>
          <value value="hans.hauser@gruppenpraxis.ch"/>
          <use value="work"/>
        </telecom>
      </Practitioner>
    </resource>
  </entry>
  <entry>
    <fullUrl value="http://example.com/fhir/Organization/Kantonsspital"/>
    <resource>
      <Organization>
        <id value="Kantonsspital"/>
        <meta>
          <profile value="http://fhir.ch/ig/ch-core/StructureDefinition/ch-core-organization"/>
        </meta>
        <text>
          <status value="generated"/><div xmlns="http://www.w3.org/1999/xhtml"><a name="Organization_Kantonsspital"> </a><p class="res-header-id"><b>Generated Narrative: Organization Kantonsspital</b></p><a name="Kantonsspital"> </a><a name="hcKantonsspital"> </a><div style="display: inline-block; background-color: #d9e0e7; padding: 6px; margin: 4px; border: 1px solid #8da1b4; border-radius: 5px; line-height: 60%"><p style="margin-bottom: 0px"/><p style="margin-bottom: 0px">Profile: <a href="http://fhir.ch/ig/ch-core/6.0.0/StructureDefinition-ch-core-organization.html">CH Core Organization</a></p></div><p><b>identifier</b>: <a href="https://www.gs1.org/standards/id-keys/gln" title="Global Location Number">GLN</a>/7601000235503</p><p><b>name</b>: Kantonsspital Zug</p><p><b>telecom</b>: <a href="tel:+41453345566">+41 45 334 55 66</a>, <a href="mailto:info@kantonsspital.zug.ch">info@kantonsspital.zug.ch</a>, <a href="http://www.kanstonsspital.zug.ch">http://www.kanstonsspital.zug.ch</a></p><p><b>address</b>: Seestrasse 14 Postfach 14 Zug 8000 Schweiz (work)</p></div>
        </text>
        <identifier>
          <system value="urn:oid:2.51.1.3"/>
          <value value="7601000235503"/>
        </identifier>
        <name value="Kantonsspital Zug"/>
        <telecom>
          <system value="phone"/>
          <value value="+41 45 334 55 66"/>
          <use value="work"/>
        </telecom>
        <telecom>
          <system value="email"/>
          <value value="info@kantonsspital.zug.ch"/>
          <use value="work"/>
        </telecom>
        <telecom>
          <system value="url"/>
          <value value="http://www.kanstonsspital.zug.ch"/>
          <use value="work"/>
        </telecom>
        <address>
          <use value="work"/>
          <line value="Seestrasse 14"/>
          <line value="Postfach 14"/>
          <city value="Zug"/>
          <postalCode value="8000"/>
          <country value="Schweiz"/>
        </address>
      </Organization>
    </resource>
  </entry>
  <entry>
    <fullUrl value="http://example.com/fhir/PractitionerRole/HansHauserKantonsspital"/>
    <resource>
      <PractitionerRole>
        <id value="HansHauserKantonsspital"/>
        <meta>
          <profile value="http://fhir.ch/ig/ch-core/StructureDefinition/ch-core-practitionerrole"/>
        </meta>
        <text>
          <status value="generated"/><div xmlns="http://www.w3.org/1999/xhtml"><a name="PractitionerRole_HansHauserKantonsspital"> </a><p class="res-header-id"><b>Generated Narrative: PractitionerRole HansHauserKantonsspital</b></p><a name="HansHauserKantonsspital"> </a><a name="hcHansHauserKantonsspital"> </a><div style="display: inline-block; background-color: #d9e0e7; padding: 6px; margin: 4px; border: 1px solid #8da1b4; border-radius: 5px; line-height: 60%"><p style="margin-bottom: 0px"/><p style="margin-bottom: 0px">Profile: <a href="http://fhir.ch/ig/ch-core/6.0.0/StructureDefinition-ch-core-practitionerrole.html">CH Core PractitionerRole</a></p></div><p><b>practitioner</b>: <a href="Bundle-0-best-practice-document-with-sr.html#Practitioner_HansHauser">Practitioner Hans Hauser (official)</a></p><p><b>organization</b>: <a href="Bundle-0-best-practice-document-with-sr.html#Organization_Kantonsspital">Organization Kantonsspital Zug</a></p></div>
        </text>
        <practitioner>
          <reference value="Practitioner/HansHauser"/>
        </practitioner>
        <organization>
          <reference value="Organization/Kantonsspital"/>
        </organization>
      </PractitionerRole>
    </resource>
  </entry>
  <entry>
    <fullUrl value="http://example.com/fhir/Practitioner/EvaErlenmeyer"/>
    <resource>
      <Practitioner>
        <id value="EvaErlenmeyer"/>
        <meta>
          <profile value="http://fhir.ch/ig/ch-core/StructureDefinition/ch-core-practitioner"/>
        </meta>
        <text>
          <status value="generated"/><div xmlns="http://www.w3.org/1999/xhtml"><a name="Practitioner_EvaErlenmeyer"> </a><p class="res-header-id"><b>Generated Narrative: Practitioner EvaErlenmeyer</b></p><a name="EvaErlenmeyer"> </a><a name="hcEvaErlenmeyer"> </a><div style="display: inline-block; background-color: #d9e0e7; padding: 6px; margin: 4px; border: 1px solid #8da1b4; border-radius: 5px; line-height: 60%"><p style="margin-bottom: 0px"/><p style="margin-bottom: 0px">Profile: <a href="http://fhir.ch/ig/ch-core/6.0.0/StructureDefinition-ch-core-practitioner.html">CH Core Practitioner</a></p></div><p><b>identifier</b>: <a href="https://www.gs1.org/standards/id-keys/gln" title="Global Location Number">GLN</a>/7601000050717, <code>urn:oid:2.16.756.5.30.1.123.100.2.1.1</code>/Y274589</p><p><b>name</b>: Eva Erlenmeyer (Official)</p><p><b>telecom</b>: ph: 033 444 55 66(Work), <a href="mailto:eva.erlenmeyer@labor-pipette.ch">eva.erlenmeyer@labor-pipette.ch</a></p></div>
        </text>
        <identifier>
          <system value="urn:oid:2.51.1.3"/>
          <value value="7601000050717"/>
        </identifier>
        <identifier>
          <system value="urn:oid:2.16.756.5.30.1.123.100.2.1.1"/>
          <value value="Y274589"/>
        </identifier>
        <name>
          <use value="official"/>
          <family value="Erlenmeyer"/>
          <given value="Eva"/>
          <prefix value="Dr. med.">
            <extension url="http://hl7.org/fhir/StructureDefinition/iso21090-EN-qualifier">
              <valueCode value="AC"/>
            </extension>
          </prefix>
        </name>
        <telecom>
          <system value="phone"/>
          <value value="033 444 55 66"/>
          <use value="work"/>
        </telecom>
        <telecom>
          <system value="email"/>
          <value value="eva.erlenmeyer@labor-pipette.ch"/>
          <use value="work"/>
        </telecom>
      </Practitioner>
    </resource>
  </entry>
  <entry>
    <fullUrl value="http://example.com/fhir/Organization/LaborPipette"/>
    <resource>
      <Organization>
        <id value="LaborPipette"/>
        <meta>
          <profile value="http://fhir.ch/ig/ch-core/StructureDefinition/ch-core-organization"/>
        </meta>
        <text>
          <status value="generated"/><div xmlns="http://www.w3.org/1999/xhtml"><a name="Organization_LaborPipette"> </a><p class="res-header-id"><b>Generated Narrative: Organization LaborPipette</b></p><a name="LaborPipette"> </a><a name="hcLaborPipette"> </a><div style="display: inline-block; background-color: #d9e0e7; padding: 6px; margin: 4px; border: 1px solid #8da1b4; border-radius: 5px; line-height: 60%"><p style="margin-bottom: 0px"/><p style="margin-bottom: 0px">Profile: <a href="http://fhir.ch/ig/ch-core/6.0.0/StructureDefinition-ch-core-organization.html">CH Core Organization</a></p></div><p><b>identifier</b>: <a href="https://www.gs1.org/standards/id-keys/gln" title="Global Location Number">GLN</a>/7601000234407</p><p><b>name</b>: Labor Pipette</p><p><b>telecom</b>: <a href="tel:+41223345566">+41223345566</a>, <a href="mailto:info@labor-pipette.ch">info@labor-pipette.ch</a>, <a href="http://www.labor-pipette.ch">http://www.labor-pipette.ch</a></p><p><b>address</b>: Laborstrasse 23 Olten 4600 CH </p></div>
        </text>
        <identifier>
          <system value="urn:oid:2.51.1.3"/>
          <value value="7601000234407"/>
        </identifier>
        <name value="Labor Pipette"/>
        <telecom>
          <system value="phone"/>
          <value value="+41223345566"/>
          <use value="work"/>
        </telecom>
        <telecom>
          <system value="email"/>
          <value value="info@labor-pipette.ch"/>
          <use value="work"/>
        </telecom>
        <telecom>
          <system value="url"/>
          <value value="http://www.labor-pipette.ch"/>
          <use value="work"/>
        </telecom>
        <address>
          <line value="Laborstrasse 23"/>
          <city value="Olten"/>
          <postalCode value="4600"/>
          <country value="CH"/>
        </address>
      </Organization>
    </resource>
  </entry>
  <entry>
    <fullUrl value="http://example.com/fhir/PractitionerRole/EvaErlenmeyerLaborPipette"/>
    <resource>
      <PractitionerRole>
        <id value="EvaErlenmeyerLaborPipette"/>
        <meta>
          <profile value="http://fhir.ch/ig/ch-core/StructureDefinition/ch-core-practitionerrole"/>
        </meta>
        <text>
          <status value="generated"/><div xmlns="http://www.w3.org/1999/xhtml"><a name="PractitionerRole_EvaErlenmeyerLaborPipette"> </a><p class="res-header-id"><b>Generated Narrative: PractitionerRole EvaErlenmeyerLaborPipette</b></p><a name="EvaErlenmeyerLaborPipette"> </a><a name="hcEvaErlenmeyerLaborPipette"> </a><div style="display: inline-block; background-color: #d9e0e7; padding: 6px; margin: 4px; border: 1px solid #8da1b4; border-radius: 5px; line-height: 60%"><p style="margin-bottom: 0px"/><p style="margin-bottom: 0px">Profile: <a href="http://fhir.ch/ig/ch-core/6.0.0/StructureDefinition-ch-core-practitionerrole.html">CH Core PractitionerRole</a></p></div><p><b>identifier</b>: <code>urn:oid:2.16.756.5.30.1.123.100.2.1.1</code>/K333333</p><p><b>practitioner</b>: <a href="Bundle-0-best-practice-document-with-sr.html#Practitioner_EvaErlenmeyer">Practitioner Eva Erlenmeyer (official)</a></p><p><b>organization</b>: <a href="Bundle-0-best-practice-document-with-sr.html#Organization_LaborPipette">Organization Labor Pipette</a></p></div>
        </text>
        <identifier>
          <system value="urn:oid:2.16.756.5.30.1.123.100.2.1.1"/>
          <value value="K333333"/>
        </identifier>
        <practitioner>
          <reference value="Practitioner/EvaErlenmeyer"/>
        </practitioner>
        <organization>
          <reference value="Organization/LaborPipette"/>
        </organization>
      </PractitionerRole>
    </resource>
  </entry>
  <entry>
    <fullUrl value="http://example.com/fhir/Encounter/FirstEncounter"/>
    <resource>
      <Encounter>
        <id value="FirstEncounter"/>
        <text>
          <status value="generated"/><div xmlns="http://www.w3.org/1999/xhtml"><a name="Encounter_FirstEncounter"> </a><p class="res-header-id"><b>Generated Narrative: Encounter FirstEncounter</b></p><a name="FirstEncounter"> </a><a name="hcFirstEncounter"> </a><p><b>status</b>: In Progress</p><p><b>class</b>: <a href="http://terminology.hl7.org/7.0.1/CodeSystem-v3-ActCode.html#v3-ActCode-IMP">ActCode: IMP</a> (inpatient encounter)</p><p><b>subject</b>: <a href="Bundle-0-best-practice-document-with-sr.html#Patient_BirgitBlum">Birgit Blum  Female, DoB: 1984-01-01 ( urn:oid:2.16.756.5.30.1.123.100.1.1.1#80756011110123400002)</a></p></div>
        </text>
        <status value="in-progress"/>
        <class>
          <system value="http://terminology.hl7.org/CodeSystem/v3-ActCode"/>
          <code value="IMP"/>
          <display value="inpatient encounter"/>
        </class>
        <subject>
          <reference value="Patient/BirgitBlum"/>
        </subject>
      </Encounter>
    </resource>
  </entry>
  <entry>
    <fullUrl value="http://example.com/fhir/Medication/Liquemin"/>
    <resource>
      <Medication>
        <id value="Liquemin"/>
        <meta>
          <profile value="http://fhir.ch/ig/ch-core/StructureDefinition/ch-core-medication"/>
        </meta>
        <text>
          <status value="generated"/><div xmlns="http://www.w3.org/1999/xhtml"><a name="Medication_Liquemin"> </a><p class="res-header-id"><b>Generated Narrative: Medication Liquemin</b></p><a name="Liquemin"> </a><a name="hcLiquemin"> </a><div style="display: inline-block; background-color: #d9e0e7; padding: 6px; margin: 4px; border: 1px solid #8da1b4; border-radius: 5px; line-height: 60%"><p style="margin-bottom: 0px"/><p style="margin-bottom: 0px">Profile: <a href="http://fhir.ch/ig/ch-core/6.0.0/StructureDefinition-ch-core-medication.html">CH Core Medication</a></p></div><p><b>code</b>: <span title="Codes:{urn:oid:2.51.1.1 7680151590587}, {http://www.whocc.no/atc B01AB01}">LIQUEMIN Inj Lös 25000 IE/5ml</span></p><p><b>status</b>: Active</p><p><b>form</b>: <span title="Codes:{http://snomed.info/sct 385219001}">Conventional release solution for injection (dose form)</span></p><h3>Ingredients</h3><table class="grid"><tr><td style="display: none">-</td><td><b>Item[x]</b></td><td><b>Strength</b></td></tr><tr><td style="display: none">*</td><td><span title="Codes:{http://snomed.info/sct 372877000}">Heparin (substance)</span></td><td>5000 international unit<span style="background: LightGoldenRodYellow"> (Details: UCUM  code[iU] = '[iU]')</span>/0.5 milliliter<span style="background: LightGoldenRodYellow"> (Details: UCUM  codemL = 'mL')</span></td></tr></table><h3>Batches</h3><table class="grid"><tr><td style="display: none">-</td><td><b>LotNumber</b></td><td><b>ExpirationDate</b></td></tr><tr><td style="display: none">*</td><td>9494788</td><td>2024-05-22</td></tr></table></div>
        </text>
        <code>
          <coding>
            <system value="urn:oid:2.51.1.1"/>
            <code value="7680151590587"/>
            <display value="LIQUEMIN Inj Lös 25000 IE/5ml"/>
          </coding>
          <coding>
            <system value="http://www.whocc.no/atc"/>
            <code value="B01AB01"/>
            <display value="Heparin"/>
          </coding>
          <text value="LIQUEMIN Inj Lös 25000 IE/5ml"/>
        </code>
        <status value="active"/>
        <form>
          <coding>
            <system value="http://snomed.info/sct"/>
            <code value="385219001"/>
            <display value="Conventional release solution for injection (dose form)"/>
          </coding>
        </form>
        <ingredient>
          <itemCodeableConcept>
            <coding>
              <system value="http://snomed.info/sct"/>
              <code value="372877000"/>
              <display value="Heparin (substance)"/>
            </coding>
          </itemCodeableConcept>
          <strength>
            <numerator>
              <value value="5000"/>
              <unit value="international unit"/>
              <system value="http://unitsofmeasure.org"/>
              <code value="[iU]"/>
            </numerator>
            <denominator>
              <value value="0.5"/>
              <unit value="milliliter"/>
              <system value="http://unitsofmeasure.org"/>
              <code value="mL"/>
            </denominator>
          </strength>
        </ingredient>
        <batch>
          <lotNumber value="9494788"/>
          <expirationDate value="2024-05-22"/>
        </batch>
      </Medication>
    </resource>
  </entry>
  <entry>
    <fullUrl value="http://example.com/fhir/Specimen/Serum-0-best-practice"/>
    <resource>
      <Specimen>
        <id value="Serum-0-best-practice"/>
        <text>
          <status value="generated"/><div xmlns="http://www.w3.org/1999/xhtml"><a name="Specimen_Serum-0-best-practice"> </a><p class="res-header-id"><b>Generated Narrative: Specimen Serum-0-best-practice</b></p><a name="Serum-0-best-practice"> </a><a name="hcSerum-0-best-practice"> </a><p><b>identifier</b>: 48736-12345-75465</p><p><b>accessionIdentifier</b>: 4e88a-12345-dd888</p><p><b>status</b>: Available</p><p><b>type</b>: <span title="Codes:{http://snomed.info/sct 119364003}">Serum specimen (specimen)</span></p><p><b>subject</b>: <a href="Bundle-0-best-practice-document-with-sr.html#Patient_BirgitBlum">Birgit Blum  Female, DoB: 1984-01-01 ( urn:oid:2.16.756.5.30.1.123.100.1.1.1#80756011110123400002)</a></p><h3>Collections</h3><table class="grid"><tr><td style="display: none">-</td><td><b>Collector</b></td><td><b>Collected[x]</b></td><td><b>BodySite</b></td><td><b>FastingStatus[x]</b></td></tr><tr><td style="display: none">*</td><td><a href="Bundle-0-best-practice-document-with-sr.html#Practitioner_MarcMustermann">Practitioner Marc Mustermann (official)</a></td><td>2023-12-01 16:40:17+0000</td><td><span title="Codes:{http://snomed.info/sct 49852007}">Structure of median cubital vein (body structure)</span></td><td><span title="Codes:{http://terminology.hl7.org/CodeSystem/v2-0916 F}">Patient was fasting prior to the procedure.</span></td></tr></table><h3>Containers</h3><table class="grid"><tr><td style="display: none">-</td><td><b>Description</b></td><td><b>Type</b></td></tr><tr><td style="display: none">*</td><td>General specimen container (physical object)</td><td><span title="Codes:{http://snomed.info/sct 706053007}">General specimen container (physical object)</span></td></tr></table></div>
        </text>
        <identifier>
          <value value="48736-12345-75465"/>
        </identifier>
        <accessionIdentifier>
          <value value="4e88a-12345-dd888"/>
        </accessionIdentifier>
        <status value="available"/>
        <type>
          <coding>
            <system value="http://snomed.info/sct"/>
            <code value="119364003"/>
            <display value="Serum specimen (specimen)"/>
          </coding>
        </type>
        <subject>
          <reference value="Patient/BirgitBlum"/>
        </subject>
        <collection>
          <collector>
            <reference value="Practitioner/MarcMustermann"/>
          </collector>
          <collectedDateTime value="2023-12-01T16:40:17Z"/>
          <bodySite>
            <coding>
              <system value="http://snomed.info/sct"/>
              <code value="49852007"/>
              <display value="Structure of median cubital vein (body structure)"/>
            </coding>
          </bodySite>
          <fastingStatusCodeableConcept>
            <coding>
              <system value="http://terminology.hl7.org/CodeSystem/v2-0916"/>
              <code value="F"/>
              <display value="Patient was fasting prior to the procedure."/>
            </coding>
          </fastingStatusCodeableConcept>
        </collection>
        <container>
          <description value="General specimen container (physical object)"/>
          <type>
            <coding>
              <system value="http://snomed.info/sct"/>
              <code value="706053007"/>
              <display value="General specimen container (physical object)"/>
            </coding>
          </type>
        </container>
      </Specimen>
    </resource>
  </entry>
  <entry>
    <fullUrl value="http://example.com/fhir/Specimen/Blood-coag-0-best-practice"/>
    <resource>
      <Specimen>
        <id value="Blood-coag-0-best-practice"/>
        <text>
          <status value="generated"/><div xmlns="http://www.w3.org/1999/xhtml"><a name="Specimen_Blood-coag-0-best-practice"> </a><p class="res-header-id"><b>Generated Narrative: Specimen Blood-coag-0-best-practice</b></p><a name="Blood-coag-0-best-practice"> </a><a name="hcBlood-coag-0-best-practice"> </a><p><b>identifier</b>: 48736-55555-75465</p><p><b>accessionIdentifier</b>: 4e88a-66666-dd888</p><p><b>status</b>: Available</p><p><b>type</b>: <span title="Codes:{http://snomed.info/sct 119297000}">Blood sample</span></p><p><b>subject</b>: <a href="Bundle-0-best-practice-document-with-sr.html#Patient_BirgitBlum">Birgit Blum  Female, DoB: 1984-01-01 ( urn:oid:2.16.756.5.30.1.123.100.1.1.1#80756011110123400002)</a></p><p><b>receivedTime</b>: 2023-12-01 16:40:17+0000</p><h3>Collections</h3><table class="grid"><tr><td style="display: none">-</td><td><b>Collector</b></td><td><b>Collected[x]</b></td></tr><tr><td style="display: none">*</td><td><a href="Bundle-0-best-practice-document-with-sr.html#Practitioner_MarcMustermann">Practitioner Marc Mustermann (official)</a></td><td>2023-12-01 17:00:17+0000</td></tr></table><h3>Processings</h3><table class="grid"><tr><td style="display: none">-</td><td><b>Description</b></td><td><b>Time[x]</b></td></tr><tr><td style="display: none">*</td><td>Needs to be centrifugated and cooled within 1 hour</td><td>2023-12-01 17:00:17+0000 --&gt; 2023-12-01 17:30:17+0000</td></tr></table><h3>Containers</h3><table class="grid"><tr><td style="display: none">-</td><td><b>Identifier</b></td><td><b>Description</b></td><td><b>Type</b></td><td><b>Additive[x]</b></td></tr><tr><td style="display: none">*</td><td>4e88a-bc987-dd888-00001-bcoag</td><td>Blood collection Luer adaptor, 3.8% Citrate</td><td><span title="Codes:{http://snomed.info/sct 702120003}">Blood collection Luer adaptor</span></td><td><span title="Codes:{http://terminology.hl7.org/CodeSystem/v2-0371 C38}">3.8% Citrate</span></td></tr></table></div>
        </text>
        <identifier>
          <value value="48736-55555-75465"/>
        </identifier>
        <accessionIdentifier>
          <value value="4e88a-66666-dd888"/>
        </accessionIdentifier>
        <status value="available"/>
        <type>
          <coding>
            <system value="http://snomed.info/sct"/>
            <code value="119297000"/>
            <display value="Blood sample"/>
          </coding>
        </type>
        <subject>
          <reference value="Patient/BirgitBlum"/>
        </subject>
        <receivedTime value="2023-12-01T16:40:17Z"/>
        <collection>
          <collector>
            <reference value="Practitioner/MarcMustermann"/>
          </collector>
          <collectedDateTime value="2023-12-01T17:00:17Z"/>
        </collection>
        <processing>
          <description value="Needs to be centrifugated and cooled within 1 hour"/>
          <timePeriod>
            <start value="2023-12-01T17:00:17Z"/>
            <end value="2023-12-01T17:30:17Z"/>
          </timePeriod>
        </processing>
        <container>
          <identifier>
            <value value="4e88a-bc987-dd888-00001-bcoag"/>
          </identifier>
          <description value="Blood collection Luer adaptor, 3.8% Citrate"/>
          <type>
            <coding>
              <system value="http://snomed.info/sct"/>
              <code value="702120003"/>
              <display value="Blood collection Luer adaptor"/>
            </coding>
          </type>
          <additiveCodeableConcept>
            <coding>
              <system value="http://terminology.hl7.org/CodeSystem/v2-0371"/>
              <code value="C38"/>
            </coding>
          </additiveCodeableConcept>
        </container>
      </Specimen>
    </resource>
  </entry>
  <entry>
    <fullUrl value="http://example.com/fhir/Specimen/Blood-0-best-practice"/>
    <resource>
      <Specimen>
        <id value="Blood-0-best-practice"/>
        <text>
          <status value="generated"/><div xmlns="http://www.w3.org/1999/xhtml"><a name="Specimen_Blood-0-best-practice"> </a><p class="res-header-id"><b>Generated Narrative: Specimen Blood-0-best-practice</b></p><a name="Blood-0-best-practice"> </a><a name="hcBlood-0-best-practice"> </a><p><b>identifier</b>: 48736-55555-75465</p><p><b>accessionIdentifier</b>: 4e88a-66666-dd888</p><p><b>status</b>: Available</p><p><b>type</b>: <span title="Codes:{http://snomed.info/sct 119297000}">Blood sample</span></p><p><b>subject</b>: <a href="Bundle-0-best-practice-document-with-sr.html#Patient_BirgitBlum">Birgit Blum  Female, DoB: 1984-01-01 ( urn:oid:2.16.756.5.30.1.123.100.1.1.1#80756011110123400002)</a></p><h3>Collections</h3><table class="grid"><tr><td style="display: none">-</td><td><b>Collector</b></td><td><b>Collected[x]</b></td><td><b>BodySite</b></td></tr><tr><td style="display: none">*</td><td><a href="Bundle-0-best-practice-document-with-sr.html#Practitioner_MarcMustermann">Practitioner Marc Mustermann (official)</a></td><td>2023-12-01 06:40:17+0000</td><td><span title="Codes:{http://snomed.info/sct 721029009}">Structure of superficial vein of left upper limb (body structure)</span></td></tr></table><h3>Containers</h3><table class="grid"><tr><td style="display: none">-</td><td><b>Type</b></td></tr><tr><td style="display: none">*</td><td><span title="Codes:{http://snomed.info/sct 706053007}">General specimen container (physical object)</span></td></tr></table><p><b>note</b>: </p><blockquote><div><p>Specimen is grossly lipemic</p>
</div></blockquote></div>
        </text>
        <identifier>
          <value value="48736-55555-75465"/>
        </identifier>
        <accessionIdentifier>
          <value value="4e88a-66666-dd888"/>
        </accessionIdentifier>
        <status value="available"/>
        <type>
          <coding>
            <system value="http://snomed.info/sct"/>
            <code value="119297000"/>
            <display value="Blood sample"/>
          </coding>
        </type>
        <subject>
          <reference value="Patient/BirgitBlum"/>
        </subject>
        <collection>
          <collector>
            <reference value="Practitioner/MarcMustermann"/>
          </collector>
          <collectedDateTime value="2023-12-01T06:40:17Z"/>
          <bodySite>
            <coding>
              <system value="http://snomed.info/sct"/>
              <code value="721029009"/>
              <display value="Structure of superficial vein of left upper limb (body structure)"/>
            </coding>
          </bodySite>
        </collection>
        <container>
          <type>
            <coding>
              <system value="http://snomed.info/sct"/>
              <code value="706053007"/>
              <display value="General specimen container (physical object)"/>
            </coding>
          </type>
        </container>
        <note>
          <text value="Specimen is grossly lipemic"/>
        </note>
      </Specimen>
    </resource>
  </entry>
  <entry>
    <fullUrl value="http://example.com/fhir/ServiceRequest/0-best-practice-ServiceRequest-0"/>
    <resource>
      <ServiceRequest>
        <id value="0-best-practice-ServiceRequest-0"/>
        <meta>
          <profile value="http://fhir.ch/ig/ch-lab-order/StructureDefinition/ch-lab-order-SR"/>
        </meta>
        <text>
          <status value="generated"/><div xmlns="http://www.w3.org/1999/xhtml"><a name="ServiceRequest_0-best-practice-ServiceRequest-0"> </a><p class="res-header-id"><b>Generated Narrative: ServiceRequest 0-best-practice-ServiceRequest-0</b></p><a name="0-best-practice-ServiceRequest-0"> </a><a name="hc0-best-practice-ServiceRequest-0"> </a><div style="display: inline-block; background-color: #d9e0e7; padding: 6px; margin: 4px; border: 1px solid #8da1b4; border-radius: 5px; line-height: 60%"><p style="margin-bottom: 0px"/><p style="margin-bottom: 0px">Profile: <a href="StructureDefinition-ch-lab-order-SR.html">CH LAB-Order ServiceRequest</a></p></div><p><b>identifier</b>: Placer Identifier/Y274589</p><p><b>status</b>: Active</p><p><b>intent</b>: Original Order</p><p><b>priority</b>: Urgent</p><p><b>code</b>: <span title="Codes:{http://snomed.info/sct 401186003}">Deep vein thrombosis screening (procedure)</span></p><p><b>subject</b>: <a href="Bundle-0-best-practice-document-with-sr.html#Patient_BirgitBlum">Birgit Blum  Female, DoB: 1984-01-01 ( urn:oid:2.16.756.5.30.1.123.100.1.1.1#80756011110123400002)</a></p><p><b>encounter</b>: <a href="Bundle-0-best-practice-document-with-sr.html#Encounter_FirstEncounter">Encounter: status = in-progress; class = inpatient encounter (ActCode#IMP)</a></p><p><b>requester</b>: <a href="Bundle-0-best-practice-document-with-sr.html#PractitionerRole_HansHauserKantonsspital">PractitionerRole</a></p><p><b>supportingInfo</b>: <a href="Bundle-0-best-practice-document-with-sr.html#Condition_ConditionTibiaFracture">Condition Open fracture of tibial plateau (disorder)</a></p></div>
        </text>
        <identifier>
          <type>
            <coding>
              <system value="http://terminology.hl7.org/CodeSystem/v2-0203"/>
              <code value="PLAC"/>
              <display value="Placer Identifier"/>
            </coding>
          </type>
          <system value="urn:oid:2.16.756.5.30.1.123.100.2.1.1"/>
          <value value="Y274589"/>
        </identifier>
        <status value="active"/>
        <intent value="original-order"/>
        <priority value="urgent"/>
        <code>
          <coding>
            <system value="http://snomed.info/sct"/>
            <code value="401186003"/>
            <display value="Deep vein thrombosis screening (procedure)"/>
          </coding>
        </code>
        <subject>
          <reference value="Patient/BirgitBlum"/>
        </subject>
        <encounter>
          <reference value="Encounter/FirstEncounter"/>
        </encounter>
        <requester>
          <reference value="PractitionerRole/HansHauserKantonsspital"/>
        </requester>
        <supportingInfo>
          <reference value="Condition/ConditionTibiaFracture"/>
        </supportingInfo>
      </ServiceRequest>
    </resource>
  </entry>
  <entry>
    <fullUrl value="http://example.com/fhir/ServiceRequest/0-best-practice-ServiceRequest-1"/>
    <resource>
      <ServiceRequest>
        <id value="0-best-practice-ServiceRequest-1"/>
        <meta>
          <profile value="http://fhir.ch/ig/ch-lab-order/StructureDefinition/ch-lab-order-SR"/>
        </meta>
        <text>
          <status value="generated"/><div xmlns="http://www.w3.org/1999/xhtml"><a name="ServiceRequest_0-best-practice-ServiceRequest-1"> </a><p class="res-header-id"><b>Generated Narrative: ServiceRequest 0-best-practice-ServiceRequest-1</b></p><a name="0-best-practice-ServiceRequest-1"> </a><a name="hc0-best-practice-ServiceRequest-1"> </a><div style="display: inline-block; background-color: #d9e0e7; padding: 6px; margin: 4px; border: 1px solid #8da1b4; border-radius: 5px; line-height: 60%"><p style="margin-bottom: 0px"/><p style="margin-bottom: 0px">Profile: <a href="StructureDefinition-ch-lab-order-SR.html">CH LAB-Order ServiceRequest</a></p></div><p><b>identifier</b>: Placer Identifier/Y274589</p><p><b>basedOn</b>: <a href="Bundle-0-best-practice-document-with-sr.html#ServiceRequest_0-best-practice-ServiceRequest-0">ServiceRequest Deep vein thrombosis screening (procedure)</a></p><p><b>status</b>: Active</p><p><b>intent</b>: Original Order</p><p><b>priority</b>: Urgent</p><p><b>code</b>: <span title="Codes:{http://loinc.org 80627-3}">Coagulation factor X activated inhibitor [Mass/volume] in Platelet poor plasma</span></p><p><b>subject</b>: <a href="Bundle-0-best-practice-document-with-sr.html#Patient_BirgitBlum">Birgit Blum  Female, DoB: 1984-01-01 ( urn:oid:2.16.756.5.30.1.123.100.1.1.1#80756011110123400002)</a></p><p><b>requester</b>: <a href="Bundle-0-best-practice-document-with-sr.html#PractitionerRole_HansHauserKantonsspital">PractitionerRole</a></p><p><b>reasonCode</b>: <span title="Codes:{http://snomed.info/sct 250361003}">Patient gets Heparin injections</span></p><p><b>reasonReference</b>: <a href="Bundle-0-best-practice-document-with-sr.html#Condition_ConditionAnticoagulation">Condition Prophylactic anticoagulation given (situation)</a></p><p><b>supportingInfo</b>: <a href="Bundle-0-best-practice-document-with-sr.html#Medication_Liquemin">Medication LIQUEMIN Inj Lös 25000 IE/5ml</a></p><p><b>specimen</b>: <a href="Bundle-0-best-practice-document-with-sr.html#Specimen_Blood-coag-0-best-practice">Specimen: identifier = 48736-55555-75465; accessionIdentifier = 4e88a-66666-dd888; status = available; type = Blood sample; receivedTime = 2023-12-01 16:40:17+0000</a></p></div>
        </text>
        <identifier>
          <type>
            <coding>
              <system value="http://terminology.hl7.org/CodeSystem/v2-0203"/>
              <code value="PLAC"/>
              <display value="Placer Identifier"/>
            </coding>
          </type>
          <system value="urn:oid:2.16.756.5.30.1.123.100.2.1.1"/>
          <value value="Y274589"/>
        </identifier>
        <basedOn>
          <reference value="ServiceRequest/0-best-practice-ServiceRequest-0"/>
        </basedOn>
        <status value="active"/>
        <intent value="original-order"/>
        <priority value="urgent"/>
        <code>
          <coding>
            <system value="http://loinc.org"/>
            <code value="80627-3"/>
            <display value="Coagulation factor X activated inhibitor [Mass/volume] in Platelet poor plasma"/>
          </coding>
        </code>
        <subject>
          <reference value="Patient/BirgitBlum"/>
        </subject>
        <requester>
          <reference value="PractitionerRole/HansHauserKantonsspital"/>
        </requester>
        <reasonCode>
          <coding>
            <system value="http://snomed.info/sct"/>
            <code value="250361003"/>
            <display value="Heparin control test (procedure)"/>
          </coding>
          <text value="Patient gets Heparin injections"/>
        </reasonCode>
        <reasonReference>
          <reference value="Condition/ConditionAnticoagulation"/>
        </reasonReference>
        <supportingInfo>
          <reference value="Medication/Liquemin"/>
        </supportingInfo>
        <specimen>
          <reference value="Specimen/Blood-coag-0-best-practice"/>
        </specimen>
      </ServiceRequest>
    </resource>
  </entry>
  <entry>
    <fullUrl value="http://example.com/fhir/ServiceRequest/0-best-practice-ServiceRequest-2"/>
    <resource>
      <ServiceRequest>
        <id value="0-best-practice-ServiceRequest-2"/>
        <meta>
          <profile value="http://fhir.ch/ig/ch-lab-order/StructureDefinition/ch-lab-order-SR"/>
        </meta>
        <text>
          <status value="generated"/><div xmlns="http://www.w3.org/1999/xhtml"><a name="ServiceRequest_0-best-practice-ServiceRequest-2"> </a><p class="res-header-id"><b>Generated Narrative: ServiceRequest 0-best-practice-ServiceRequest-2</b></p><a name="0-best-practice-ServiceRequest-2"> </a><a name="hc0-best-practice-ServiceRequest-2"> </a><div style="display: inline-block; background-color: #d9e0e7; padding: 6px; margin: 4px; border: 1px solid #8da1b4; border-radius: 5px; line-height: 60%"><p style="margin-bottom: 0px"/><p style="margin-bottom: 0px">Profile: <a href="StructureDefinition-ch-lab-order-SR.html">CH LAB-Order ServiceRequest</a></p></div><p><b>identifier</b>: Placer Identifier/Y274589</p><p><b>basedOn</b>: <a href="Bundle-0-best-practice-document-with-sr.html#ServiceRequest_0-best-practice-ServiceRequest-0">ServiceRequest Deep vein thrombosis screening (procedure)</a></p><p><b>status</b>: Active</p><p><b>intent</b>: Original Order</p><p><b>priority</b>: Urgent</p><p><b>code</b>: <span title="Codes:{http://loinc.org 47622-6}">Glucose [Moles/volume] in Serum or Plasma --pre dose glucose</span></p><p><b>subject</b>: <a href="Bundle-0-best-practice-document-with-sr.html#Patient_BirgitBlum">Birgit Blum  Female, DoB: 1984-01-01 ( urn:oid:2.16.756.5.30.1.123.100.1.1.1#80756011110123400002)</a></p><p><b>requester</b>: <a href="Bundle-0-best-practice-document-with-sr.html#PractitionerRole_HansHauserKantonsspital">PractitionerRole</a></p><p><b>reasonCode</b>: <span title="Codes:{http://snomed.info/sct 171183004}">Diabetes mellitus screening</span></p><p><b>specimen</b>: <a href="Bundle-0-best-practice-document-with-sr.html#Specimen_Serum-0-best-practice">Serum specimen</a></p></div>
        </text>
        <identifier>
          <type>
            <coding>
              <system value="http://terminology.hl7.org/CodeSystem/v2-0203"/>
              <code value="PLAC"/>
              <display value="Placer Identifier"/>
            </coding>
          </type>
          <system value="urn:oid:2.16.756.5.30.1.123.100.2.1.1"/>
          <value value="Y274589"/>
        </identifier>
        <basedOn>
          <reference value="ServiceRequest/0-best-practice-ServiceRequest-0"/>
        </basedOn>
        <status value="active"/>
        <intent value="original-order"/>
        <priority value="urgent"/>
        <code>
          <coding>
            <system value="http://loinc.org"/>
            <code value="47622-6"/>
            <display value="Glucose [Moles/volume] in Serum or Plasma --pre dose glucose"/>
          </coding>
        </code>
        <subject>
          <reference value="Patient/BirgitBlum"/>
        </subject>
        <requester>
          <reference value="PractitionerRole/HansHauserKantonsspital"/>
        </requester>
        <reasonCode>
          <coding>
            <system value="http://snomed.info/sct"/>
            <code value="171183004"/>
            <display value="Diabetes mellitus screening (procedure)"/>
          </coding>
          <text value="Diabetes mellitus screening"/>
        </reasonCode>
        <specimen>
          <reference value="Specimen/Serum-0-best-practice"/>
          <display value="Serum specimen"/>
        </specimen>
      </ServiceRequest>
    </resource>
  </entry>
  <entry>
    <fullUrl value="http://example.com/fhir/ServiceRequest/0-best-practice-ServiceRequest-3"/>
    <resource>
      <ServiceRequest>
        <id value="0-best-practice-ServiceRequest-3"/>
        <meta>
          <profile value="http://fhir.ch/ig/ch-lab-order/StructureDefinition/ch-lab-order-SR"/>
        </meta>
        <text>
          <status value="generated"/><div xmlns="http://www.w3.org/1999/xhtml"><a name="ServiceRequest_0-best-practice-ServiceRequest-3"> </a><p class="res-header-id"><b>Generated Narrative: ServiceRequest 0-best-practice-ServiceRequest-3</b></p><a name="0-best-practice-ServiceRequest-3"> </a><a name="hc0-best-practice-ServiceRequest-3"> </a><div style="display: inline-block; background-color: #d9e0e7; padding: 6px; margin: 4px; border: 1px solid #8da1b4; border-radius: 5px; line-height: 60%"><p style="margin-bottom: 0px"/><p style="margin-bottom: 0px">Profile: <a href="StructureDefinition-ch-lab-order-SR.html">CH LAB-Order ServiceRequest</a></p></div><p><b>identifier</b>: Placer Identifier/Y274589</p><p><b>basedOn</b>: <a href="Bundle-0-best-practice-document-with-sr.html#ServiceRequest_0-best-practice-ServiceRequest-0">ServiceRequest Deep vein thrombosis screening (procedure)</a></p><p><b>status</b>: Active</p><p><b>intent</b>: Original Order</p><p><b>priority</b>: Urgent</p><p><b>code</b>: <span title="Codes:{http://loinc.org 24360-0}">Hemoglobin and Hematocrit panel - Blood</span></p><p><b>subject</b>: <a href="Bundle-0-best-practice-document-with-sr.html#Patient_BirgitBlum">Birgit Blum  Female, DoB: 1984-01-01 ( urn:oid:2.16.756.5.30.1.123.100.1.1.1#80756011110123400002)</a></p><p><b>requester</b>: <a href="Bundle-0-best-practice-document-with-sr.html#PractitionerRole_HansHauserKantonsspital">PractitionerRole</a></p><p><b>reasonCode</b>: <span title="Codes:{http://snomed.info/sct 171201007}">Anemia screening</span></p></div>
        </text>
        <identifier>
          <type>
            <coding>
              <system value="http://terminology.hl7.org/CodeSystem/v2-0203"/>
              <code value="PLAC"/>
              <display value="Placer Identifier"/>
            </coding>
          </type>
          <system value="urn:oid:2.16.756.5.30.1.123.100.2.1.1"/>
          <value value="Y274589"/>
        </identifier>
        <basedOn>
          <reference value="ServiceRequest/0-best-practice-ServiceRequest-0"/>
        </basedOn>
        <status value="active"/>
        <intent value="original-order"/>
        <priority value="urgent"/>
        <code>
          <coding>
            <system value="http://loinc.org"/>
            <code value="24360-0"/>
            <display value="Hemoglobin and Hematocrit panel - Blood"/>
          </coding>
        </code>
        <subject>
          <reference value="Patient/BirgitBlum"/>
        </subject>
        <requester>
          <reference value="PractitionerRole/HansHauserKantonsspital"/>
        </requester>
        <reasonCode>
          <coding>
            <system value="http://snomed.info/sct"/>
            <code value="171201007"/>
            <display value="Anemia screening (procedure)"/>
          </coding>
          <text value="Anemia screening"/>
        </reasonCode>
      </ServiceRequest>
    </resource>
  </entry>
  <entry>
    <fullUrl value="http://example.com/fhir/ServiceRequest/0-best-practice-ServiceRequest-3-Hb"/>
    <resource>
      <ServiceRequest>
        <id value="0-best-practice-ServiceRequest-3-Hb"/>
        <meta>
          <profile value="http://fhir.ch/ig/ch-lab-order/StructureDefinition/ch-lab-order-SR"/>
        </meta>
        <text>
          <status value="generated"/><div xmlns="http://www.w3.org/1999/xhtml"><a name="ServiceRequest_0-best-practice-ServiceRequest-3-Hb"> </a><p class="res-header-id"><b>Generated Narrative: ServiceRequest 0-best-practice-ServiceRequest-3-Hb</b></p><a name="0-best-practice-ServiceRequest-3-Hb"> </a><a name="hc0-best-practice-ServiceRequest-3-Hb"> </a><div style="display: inline-block; background-color: #d9e0e7; padding: 6px; margin: 4px; border: 1px solid #8da1b4; border-radius: 5px; line-height: 60%"><p style="margin-bottom: 0px"/><p style="margin-bottom: 0px">Profile: <a href="StructureDefinition-ch-lab-order-SR.html">CH LAB-Order ServiceRequest</a></p></div><p><b>identifier</b>: Placer Identifier/Y274589</p><p><b>basedOn</b>: <a href="Bundle-0-best-practice-document-with-sr.html#ServiceRequest_0-best-practice-ServiceRequest-3">ServiceRequest Hemoglobin and Hematocrit panel - Blood</a></p><p><b>status</b>: Active</p><p><b>intent</b>: Original Order</p><p><b>priority</b>: Urgent</p><p><b>code</b>: <span title="Codes:{http://loinc.org 718-7}">Hemoglobin [Mass/volume] in Blood</span></p><p><b>subject</b>: <a href="Bundle-0-best-practice-document-with-sr.html#Patient_BirgitBlum">Birgit Blum  Female, DoB: 1984-01-01 ( urn:oid:2.16.756.5.30.1.123.100.1.1.1#80756011110123400002)</a></p><p><b>requester</b>: <a href="Bundle-0-best-practice-document-with-sr.html#PractitionerRole_HansHauserKantonsspital">PractitionerRole</a></p><p><b>specimen</b>: <a href="Bundle-0-best-practice-document-with-sr.html#Specimen_Blood-0-best-practice">Specimen: identifier = 48736-55555-75465; accessionIdentifier = 4e88a-66666-dd888; status = available; type = Blood sample; note = Specimen is grossly lipemic</a></p></div>
        </text>
        <identifier>
          <type>
            <coding>
              <system value="http://terminology.hl7.org/CodeSystem/v2-0203"/>
              <code value="PLAC"/>
              <display value="Placer Identifier"/>
            </coding>
          </type>
          <system value="urn:oid:2.16.756.5.30.1.123.100.2.1.1"/>
          <value value="Y274589"/>
        </identifier>
        <basedOn>
          <reference value="ServiceRequest/0-best-practice-ServiceRequest-3"/>
        </basedOn>
        <status value="active"/>
        <intent value="original-order"/>
        <priority value="urgent"/>
        <code>
          <coding>
            <system value="http://loinc.org"/>
            <code value="718-7"/>
            <display value="Hemoglobin [Mass/volume] in Blood"/>
          </coding>
        </code>
        <subject>
          <reference value="Patient/BirgitBlum"/>
        </subject>
        <requester>
          <reference value="PractitionerRole/HansHauserKantonsspital"/>
        </requester>
        <specimen>
          <reference value="Specimen/Blood-0-best-practice"/>
        </specimen>
      </ServiceRequest>
    </resource>
  </entry>
  <entry>
    <fullUrl value="http://example.com/fhir/ServiceRequest/0-best-practice-ServiceRequest-3-Ht"/>
    <resource>
      <ServiceRequest>
        <id value="0-best-practice-ServiceRequest-3-Ht"/>
        <meta>
          <profile value="http://fhir.ch/ig/ch-lab-order/StructureDefinition/ch-lab-order-SR"/>
        </meta>
        <text>
          <status value="generated"/><div xmlns="http://www.w3.org/1999/xhtml"><a name="ServiceRequest_0-best-practice-ServiceRequest-3-Ht"> </a><p class="res-header-id"><b>Generated Narrative: ServiceRequest 0-best-practice-ServiceRequest-3-Ht</b></p><a name="0-best-practice-ServiceRequest-3-Ht"> </a><a name="hc0-best-practice-ServiceRequest-3-Ht"> </a><div style="display: inline-block; background-color: #d9e0e7; padding: 6px; margin: 4px; border: 1px solid #8da1b4; border-radius: 5px; line-height: 60%"><p style="margin-bottom: 0px"/><p style="margin-bottom: 0px">Profile: <a href="StructureDefinition-ch-lab-order-SR.html">CH LAB-Order ServiceRequest</a></p></div><p><b>identifier</b>: Placer Identifier/Y274589</p><p><b>basedOn</b>: <a href="Bundle-0-best-practice-document-with-sr.html#ServiceRequest_0-best-practice-ServiceRequest-3">ServiceRequest Hemoglobin and Hematocrit panel - Blood</a></p><p><b>status</b>: Active</p><p><b>intent</b>: Original Order</p><p><b>priority</b>: Urgent</p><p><b>code</b>: <span title="Codes:{http://loinc.org 20570-8}">Hematocrit [Volume Fraction] of Blood by calculation</span></p><p><b>subject</b>: <a href="Bundle-0-best-practice-document-with-sr.html#Patient_BirgitBlum">Birgit Blum  Female, DoB: 1984-01-01 ( urn:oid:2.16.756.5.30.1.123.100.1.1.1#80756011110123400002)</a></p><p><b>requester</b>: <a href="Bundle-0-best-practice-document-with-sr.html#PractitionerRole_HansHauserKantonsspital">PractitionerRole</a></p><p><b>specimen</b>: <a href="Bundle-0-best-practice-document-with-sr.html#Specimen_Blood-0-best-practice">Specimen: identifier = 48736-55555-75465; accessionIdentifier = 4e88a-66666-dd888; status = available; type = Blood sample; note = Specimen is grossly lipemic</a></p></div>
        </text>
        <identifier>
          <type>
            <coding>
              <system value="http://terminology.hl7.org/CodeSystem/v2-0203"/>
              <code value="PLAC"/>
              <display value="Placer Identifier"/>
            </coding>
          </type>
          <system value="urn:oid:2.16.756.5.30.1.123.100.2.1.1"/>
          <value value="Y274589"/>
        </identifier>
        <basedOn>
          <reference value="ServiceRequest/0-best-practice-ServiceRequest-3"/>
        </basedOn>
        <status value="active"/>
        <intent value="original-order"/>
        <priority value="urgent"/>
        <code>
          <coding>
            <system value="http://loinc.org"/>
            <code value="20570-8"/>
            <display value="Hematocrit [Volume Fraction] of Blood by calculation"/>
          </coding>
        </code>
        <subject>
          <reference value="Patient/BirgitBlum"/>
        </subject>
        <requester>
          <reference value="PractitionerRole/HansHauserKantonsspital"/>
        </requester>
        <specimen>
          <reference value="Specimen/Blood-0-best-practice"/>
        </specimen>
      </ServiceRequest>
    </resource>
  </entry>
  <entry>
    <fullUrl value="http://example.com/fhir/Condition/ConditionTibiaFracture"/>
    <resource>
      <Condition>
        <id value="ConditionTibiaFracture"/>
        <meta>
          <profile value="http://fhir.ch/ig/ch-core/StructureDefinition/ch-core-condition"/>
        </meta>
        <text>
          <status value="generated"/><div xmlns="http://www.w3.org/1999/xhtml"><a name="Condition_ConditionTibiaFracture"> </a><p class="res-header-id"><b>Generated Narrative: Condition ConditionTibiaFracture</b></p><a name="ConditionTibiaFracture"> </a><a name="hcConditionTibiaFracture"> </a><div style="display: inline-block; background-color: #d9e0e7; padding: 6px; margin: 4px; border: 1px solid #8da1b4; border-radius: 5px; line-height: 60%"><p style="margin-bottom: 0px"/><p style="margin-bottom: 0px">Profile: <a href="http://fhir.ch/ig/ch-core/6.0.0/StructureDefinition-ch-core-condition.html">CH Core Condition</a></p></div><p><b>clinicalStatus</b>: <span title="Codes:{http://terminology.hl7.org/CodeSystem/condition-clinical active}">Active</span></p><p><b>verificationStatus</b>: <span title="Codes:{http://terminology.hl7.org/CodeSystem/condition-ver-status confirmed}">Confirmed</span></p><p><b>category</b>: <span title="Codes:{http://terminology.hl7.org/CodeSystem/condition-category problem-list-item}">Problem List Item</span></p><p><b>severity</b>: <span title="Codes:{http://snomed.info/sct 24484000}">Severe (severity modifier) (qualifier value)</span></p><p><b>code</b>: <span title="Codes:{http://snomed.info/sct 446980008}">Open fracture of tibial plateau (disorder)</span></p><p><b>bodySite</b>: <span title="Codes:{http://snomed.info/sct 719496004}">Bone structure of proximal left tibia (body structure)</span></p><p><b>subject</b>: <a href="Bundle-0-best-practice-document-with-sr.html#Patient_BirgitBlum">Birgit Blum</a></p><p><b>encounter</b>: <a href="Bundle-0-best-practice-document-with-sr.html#Encounter_FirstEncounter">Encounter: status = in-progress; class = inpatient encounter (ActCode#IMP)</a></p><p><b>onset</b>: 2024-02-05</p><p><b>recordedDate</b>: 2024-02-05</p><p><b>asserter</b>: <a href="Bundle-0-best-practice-document-with-sr.html#PractitionerRole_HansHauserKantonsspital">Birgit Blum</a></p><h3>Evidences</h3><table class="grid"><tr><td style="display: none">-</td><td><b>Code</b></td></tr><tr><td style="display: none">*</td><td><span title="Codes:{http://snomed.info/sct 111645003}">Open fracture of upper end of tibia (disorder)</span></td></tr></table></div>
        </text>
        <clinicalStatus>
          <coding>
            <system value="http://terminology.hl7.org/CodeSystem/condition-clinical"/>
            <code value="active"/>
          </coding>
        </clinicalStatus>
        <verificationStatus>
          <coding>
            <system value="http://terminology.hl7.org/CodeSystem/condition-ver-status"/>
            <code value="confirmed"/>
          </coding>
        </verificationStatus>
        <category>
          <coding>
            <system value="http://terminology.hl7.org/CodeSystem/condition-category"/>
            <code value="problem-list-item"/>
          </coding>
        </category>
        <severity>
          <coding>
            <system value="http://snomed.info/sct"/>
            <code value="24484000"/>
            <display value="Severe (severity modifier) (qualifier value)"/>
          </coding>
        </severity>
        <code>
          <coding>
            <system value="http://snomed.info/sct"/>
            <code value="446980008"/>
            <display value="Open fracture of tibial plateau (disorder)"/>
          </coding>
        </code>
        <bodySite>
          <coding>
            <system value="http://snomed.info/sct"/>
            <code value="719496004"/>
          </coding>
          <text value="Bone structure of proximal left tibia (body structure)"/>
        </bodySite>
        <subject>
          <reference value="Patient/BirgitBlum"/>
          <display value="Birgit Blum"/>
        </subject>
        <encounter>
          <reference value="Encounter/FirstEncounter"/>
        </encounter>
        <onsetDateTime value="2024-02-05"/>
        <recordedDate value="2024-02-05"/>
        <asserter>
          <reference value="PractitionerRole/HansHauserKantonsspital"/>
          <display value="Birgit Blum"/>
        </asserter>
        <evidence>
          <code>
            <coding>
              <system value="http://snomed.info/sct"/>
              <code value="111645003"/>
              <display value="Open fracture of upper end of tibia (disorder)"/>
            </coding>
          </code>
        </evidence>
      </Condition>
    </resource>
  </entry>
  <entry>
    <fullUrl value="http://example.com/fhir/Condition/ConditionAnticoagulation"/>
    <resource>
      <Condition>
        <id value="ConditionAnticoagulation"/>
        <meta>
          <profile value="http://fhir.ch/ig/ch-core/StructureDefinition/ch-core-condition"/>
        </meta>
        <text>
          <status value="generated"/><div xmlns="http://www.w3.org/1999/xhtml"><a name="Condition_ConditionAnticoagulation"> </a><p class="res-header-id"><b>Generated Narrative: Condition ConditionAnticoagulation</b></p><a name="ConditionAnticoagulation"> </a><a name="hcConditionAnticoagulation"> </a><div style="display: inline-block; background-color: #d9e0e7; padding: 6px; margin: 4px; border: 1px solid #8da1b4; border-radius: 5px; line-height: 60%"><p style="margin-bottom: 0px"/><p style="margin-bottom: 0px">Profile: <a href="http://fhir.ch/ig/ch-core/6.0.0/StructureDefinition-ch-core-condition.html">CH Core Condition</a></p></div><p><b>clinicalStatus</b>: <span title="Codes:{http://terminology.hl7.org/CodeSystem/condition-clinical active}">Active</span></p><p><b>verificationStatus</b>: <span title="Codes:{http://terminology.hl7.org/CodeSystem/condition-ver-status confirmed}">Confirmed</span></p><p><b>category</b>: <span title="Codes:{http://terminology.hl7.org/CodeSystem/condition-category problem-list-item}">Problem List Item</span></p><p><b>code</b>: <span title="Codes:{http://snomed.info/sct 122621000119109}">Prophylactic anticoagulation given (situation)</span></p><p><b>subject</b>: <a href="Bundle-0-best-practice-document-with-sr.html#Patient_BirgitBlum">Birgit Blum</a></p><p><b>encounter</b>: <a href="Bundle-0-best-practice-document-with-sr.html#Encounter_FirstEncounter">Encounter: status = in-progress; class = inpatient encounter (ActCode#IMP)</a></p><p><b>onset</b>: 2024-02-05</p><p><b>recordedDate</b>: 2024-02-05</p><p><b>asserter</b>: <a href="Bundle-0-best-practice-document-with-sr.html#PractitionerRole_HansHauserKantonsspital">Birgit Blum</a></p><h3>Evidences</h3><table class="grid"><tr><td style="display: none">-</td><td><b>Code</b></td></tr><tr><td style="display: none">*</td><td><span title="Codes:{http://snomed.info/sct 111645003}">Open fracture of upper end of tibia (disorder)</span></td></tr></table></div>
        </text>
        <clinicalStatus>
          <coding>
            <system value="http://terminology.hl7.org/CodeSystem/condition-clinical"/>
            <code value="active"/>
          </coding>
        </clinicalStatus>
        <verificationStatus>
          <coding>
            <system value="http://terminology.hl7.org/CodeSystem/condition-ver-status"/>
            <code value="confirmed"/>
          </coding>
        </verificationStatus>
        <category>
          <coding>
            <system value="http://terminology.hl7.org/CodeSystem/condition-category"/>
            <code value="problem-list-item"/>
          </coding>
        </category>
        <code>
          <coding>
            <system value="http://snomed.info/sct"/>
            <code value="122621000119109"/>
            <display value="Prophylactic anticoagulation given (situation)"/>
          </coding>
        </code>
        <subject>
          <reference value="Patient/BirgitBlum"/>
          <display value="Birgit Blum"/>
        </subject>
        <encounter>
          <reference value="Encounter/FirstEncounter"/>
        </encounter>
        <onsetDateTime value="2024-02-05"/>
        <recordedDate value="2024-02-05"/>
        <asserter>
          <reference value="PractitionerRole/HansHauserKantonsspital"/>
          <display value="Birgit Blum"/>
        </asserter>
        <evidence>
          <code>
            <coding>
              <system value="http://snomed.info/sct"/>
              <code value="111645003"/>
              <display value="Open fracture of upper end of tibia (disorder)"/>
            </coding>
          </code>
        </evidence>
      </Condition>
    </resource>
  </entry>
</Bundle>