{
  "resourceType" : "Bundle",
  "id" : "PharmaceuticalAdvice-ChangeDosage",
  "meta" : {
    "profile" : ["http://fhir.ch/ig/ch-emed/StructureDefinition/ch-emed-document-pharmaceuticaladvice"]
  },
  "identifier" : {
    "system" : "urn:ietf:rfc:3986",
    "value" : "urn:uuid:adab8d2d-ae14-48d6-8d15-b726d6ea82c5"
  },
  "type" : "document",
  "timestamp" : "2012-02-04T14:00:00+01:00",
  "entry" : [{
    "fullUrl" : "http://test.fhir.ch/r4/Composition/Comp-ChangeDosage",
    "resource" : {
      "resourceType" : "Composition",
      "id" : "Comp-ChangeDosage",
      "meta" : {
        "profile" : ["http://fhir.ch/ig/ch-emed/StructureDefinition/ch-emed-composition-pharmaceuticaladvice"]
      },
      "language" : "de-CH",
      "text" : {
        "status" : "generated",
        "div" : "<div xmlns=\"http://www.w3.org/1999/xhtml\" xml:lang=\"de-CH\" lang=\"de-CH\"><a name=\"Composition_Comp-ChangeDosage\"> </a><p class=\"res-header-id\"><b>Generated Narrative: Composition Comp-ChangeDosage</b></p><a name=\"Comp-ChangeDosage\"> </a><a name=\"hcComp-ChangeDosage\"> </a><a name=\"Comp-ChangeDosage-en-US\"> </a><div style=\"display: inline-block; background-color: #d9e0e7; padding: 6px; margin: 4px; border: 1px solid #8da1b4; border-radius: 5px; line-height: 60%\"><p style=\"margin-bottom: 0px\">Language: de-CH</p><p style=\"margin-bottom: 0px\">Profile: <a href=\"StructureDefinition-ch-emed-composition-pharmaceuticaladvice.html\">CH EMED Pharmaceutical Advice Composition</a></p></div><p><b>identifier</b>: <a href=\"http://terminology.hl7.org/6.3.0/NamingSystem-uri.html\" title=\"As defined by RFC 3986 (http://www.ietf.org/rfc/rfc3986.txt)(with many schemes defined in many RFCs). For OIDs and UUIDs, use the URN form (urn:oid:(note: lowercase) and urn:uuid:). See http://www.ietf.org/rfc/rfc3001.txt and http://www.ietf.org/rfc/rfc4122.txt \r\n\r\nThis oid is used as an identifier II.root to indicate the the extension is an absolute URI (technically, an IRI). Typically, this is used for OIDs and GUIDs. Note that when this OID is used with OIDs and GUIDs, the II.extension should start with urn:oid or urn:uuid: \r\n\r\nNote that this OID is created to aid with interconversion between CDA and FHIR - FHIR uses urn:ietf:rfc:3986 as equivalent to this OID. URIs as identifiers appear more commonly in FHIR.\r\n\r\nThis OID may also be used in CD.codeSystem.\">Uniform Resource Identifier (URI)</a>/urn:uuid:adab8d2d-ae14-48d6-8d15-b726d6ea82c5</p><p><b>status</b>: Final</p><p><b>type</b>: <span title=\"Codes:{http://loinc.org 61356-2}, {http://snomed.info/sct 419891008}\">Medication pharmaceutical advice.extended Document</span></p><p><b>date</b>: 2012-02-04 14:00:00+0100</p><p><b>author</b>: <a href=\"PractitionerRole-FamilienHausarztAtHausarzt.html\">PractitionerRole</a></p><p><b>title</b>: Kommentar zur Medikation</p><p><b>confidentiality</b>: normal</p></div>"
      },
      "identifier" : {
        "system" : "urn:ietf:rfc:3986",
        "value" : "urn:uuid:adab8d2d-ae14-48d6-8d15-b726d6ea82c5"
      },
      "status" : "final",
      "type" : {
        "coding" : [{
          "system" : "http://loinc.org",
          "code" : "61356-2",
          "display" : "Medication pharmaceutical advice.extended Document"
        },
        {
          "system" : "http://snomed.info/sct",
          "code" : "419891008",
          "display" : "Record artifact (record artifact)"
        }]
      },
      "subject" : {
        "reference" : "Patient/MonikaWegmueller"
      },
      "date" : "2012-02-04T14:00:00+01:00",
      "author" : [{
        "reference" : "PractitionerRole/FamilienHausarztAtHausarzt"
      }],
      "title" : "Kommentar zur Medikation",
      "confidentiality" : "N",
      "_confidentiality" : {
        "extension" : [{
          "url" : "http://fhir.ch/ig/ch-core/StructureDefinition/ch-ext-epr-confidentialitycode",
          "valueCodeableConcept" : {
            "coding" : [{
              "system" : "http://snomed.info/sct",
              "code" : "17621005",
              "display" : "Normal (qualifier value)"
            }]
          }
        }]
      },
      "section" : [{
        "title" : "Hinweise zur Medikation",
        "code" : {
          "coding" : [{
            "system" : "http://loinc.org",
            "code" : "61357-0",
            "display" : "Medication pharmaceutical advice.brief Document"
          }]
        },
        "text" : {
          "status" : "generated",
          "div" : "<div xmlns=\"http://www.w3.org/1999/xhtml\"><table><thead><tr><th>Präpartename</th><th>Wirkstoffname</th><th>Galenische Form</th><th>Dosis pro Einheit</th><th>Dos.Morgen</th><th>Dos.Mittag</th><th>Dos.Abend</th><th>Dos.Nacht</th><th>Verabreichungsweg</th><th>Anwendungsdauer</th><th>Behandlungsgrund</th><th>Kommentar</th></tr></thead><tbody><tr id=\"padv.1\"><td id=\"padv.1.brandedmedication\">Triatec</td><td id=\"padv.1.ingredient\">Ramipril</td><td id=\"padv.1.packageform\">Tbl</td><td id=\"padv.1.dosequantity\">2.5 mg</td><td id=\"padv.1.dosagemorning\">1</td><td id=\"padv.1.dosagelunch\">0</td><td id=\"padv.1.dosageevening\">0</td><td id=\"padv.1.dosagenight\">0</td><td id=\"padv.1.routecode\">oral</td><td id=\"padv.1.datefromto\"/><td id=\"padv.1.reason\">Bluthochdruck</td><td id=\"padv.1.note\">Dosierungsänderung: Morgens 1 Tablette anstatt 0.5 Tablette</td></tr></tbody></table></div>"
        },
        "entry" : [{
          "reference" : "Observation/Obs-ChangeDosage"
        }]
      }]
    }
  },
  {
    "fullUrl" : "http://test.fhir.ch/r4/Patient/MonikaWegmueller",
    "resource" : {
      "resourceType" : "Patient",
      "id" : "MonikaWegmueller",
      "meta" : {
        "profile" : ["http://fhir.ch/ig/ch-core/StructureDefinition/ch-core-patient-epr"]
      },
      "text" : {
        "status" : "generated",
        "div" : "<div xmlns=\"http://www.w3.org/1999/xhtml\"><a name=\"Patient_MonikaWegmueller\"> </a><p class=\"res-header-id\"><b>Generated Narrative: Patient MonikaWegmueller</b></p><a name=\"MonikaWegmueller\"> </a><a name=\"hcMonikaWegmueller\"> </a><a name=\"MonikaWegmueller-en-US\"> </a><div style=\"display: inline-block; background-color: #d9e0e7; padding: 6px; margin: 4px; border: 1px solid #8da1b4; border-radius: 5px; line-height: 60%\"><p style=\"margin-bottom: 0px\"/><p style=\"margin-bottom: 0px\">Profile: <a href=\"http://fhir.ch/ig/ch-core/6.0.0-ballot/StructureDefinition-ch-core-patient-epr.html\">CH Core Patient EPR</a></p></div><p style=\"border: 1px #661aff solid; background-color: #e6e6ff; padding: 10px;\">Monika Wegmüller  Female, DoB: 1943-05-15 ( Medical record number)</p><hr/><table class=\"grid\"><tr><td style=\"background-color: #f3f5da\" title=\"Ways to contact the Patient\">Contact Detail</td><td colspan=\"3\">Wiesenstr. 12 Zürich 8003 CH </td></tr></table></div>"
      },
      "identifier" : [{
        "type" : {
          "coding" : [{
            "system" : "http://terminology.hl7.org/CodeSystem/v2-0203",
            "code" : "MR"
          }]
        },
        "system" : "urn:oid:2.999.1",
        "value" : "11111111"
      }],
      "name" : [{
        "family" : "Wegmüller",
        "given" : ["Monika"]
      }],
      "gender" : "female",
      "birthDate" : "1943-05-15",
      "address" : [{
        "line" : ["Wiesenstr. 12"],
        "city" : "Zürich",
        "postalCode" : "8003",
        "country" : "CH"
      }]
    }
  },
  {
    "fullUrl" : "http://test.fhir.ch/r4/PractitionerRole/FamilienHausarztAtHausarzt",
    "resource" : {
      "resourceType" : "PractitionerRole",
      "id" : "FamilienHausarztAtHausarzt",
      "meta" : {
        "profile" : ["http://fhir.ch/ig/ch-emed/StructureDefinition/ch-emed-practitionerrole"]
      },
      "text" : {
        "status" : "generated",
        "div" : "<div xmlns=\"http://www.w3.org/1999/xhtml\"><a name=\"PractitionerRole_FamilienHausarztAtHausarzt\"> </a><p class=\"res-header-id\"><b>Generated Narrative: PractitionerRole FamilienHausarztAtHausarzt</b></p><a name=\"FamilienHausarztAtHausarzt\"> </a><a name=\"hcFamilienHausarztAtHausarzt\"> </a><a name=\"FamilienHausarztAtHausarzt-en-US\"> </a><div style=\"display: inline-block; background-color: #d9e0e7; padding: 6px; margin: 4px; border: 1px solid #8da1b4; border-radius: 5px; line-height: 60%\"><p style=\"margin-bottom: 0px\"/><p style=\"margin-bottom: 0px\">Profile: <a href=\"StructureDefinition-ch-emed-practitionerrole.html\">CH EMED PractitionerRole</a></p></div><p><b>practitioner</b>: <a href=\"Practitioner-FamilienHausarzt.html\">Practitioner Familien Hausarzt </a></p><p><b>organization</b>: <a href=\"Organization-Hausarzt.html\">Organization Hausarzt</a></p></div>"
      },
      "practitioner" : {
        "reference" : "Practitioner/FamilienHausarzt"
      },
      "organization" : {
        "reference" : "Organization/Hausarzt"
      }
    }
  },
  {
    "fullUrl" : "http://test.fhir.ch/r4/Practitioner/FamilienHausarzt",
    "resource" : {
      "resourceType" : "Practitioner",
      "id" : "FamilienHausarzt",
      "meta" : {
        "profile" : ["http://fhir.ch/ig/ch-emed/StructureDefinition/ch-emed-practitioner"]
      },
      "text" : {
        "status" : "generated",
        "div" : "<div xmlns=\"http://www.w3.org/1999/xhtml\"><a name=\"Practitioner_FamilienHausarzt\"> </a><p class=\"res-header-id\"><b>Generated Narrative: Practitioner FamilienHausarzt</b></p><a name=\"FamilienHausarzt\"> </a><a name=\"hcFamilienHausarzt\"> </a><a name=\"FamilienHausarzt-en-US\"> </a><div style=\"display: inline-block; background-color: #d9e0e7; padding: 6px; margin: 4px; border: 1px solid #8da1b4; border-radius: 5px; line-height: 60%\"><p style=\"margin-bottom: 0px\"/><p style=\"margin-bottom: 0px\">Profile: <a href=\"StructureDefinition-ch-emed-practitioner.html\">CH EMED Practitioner</a></p></div><p><b>identifier</b>: <a href=\"https://www.gs1.org/standards/id-keys/gln\" title=\"Global Location Number\">GLN</a>/7601000234438</p><p><b>name</b>: Familien Hausarzt </p></div>"
      },
      "identifier" : [{
        "system" : "urn:oid:2.51.1.3",
        "value" : "7601000234438"
      }],
      "name" : [{
        "family" : "Hausarzt",
        "given" : ["Familien"]
      }]
    }
  },
  {
    "fullUrl" : "http://test.fhir.ch/r4/Organization/Hausarzt",
    "resource" : {
      "resourceType" : "Organization",
      "id" : "Hausarzt",
      "meta" : {
        "profile" : ["http://fhir.ch/ig/ch-emed/StructureDefinition/ch-emed-organization"]
      },
      "text" : {
        "status" : "generated",
        "div" : "<div xmlns=\"http://www.w3.org/1999/xhtml\"><a name=\"Organization_Hausarzt\"> </a><p class=\"res-header-id\"><b>Generated Narrative: Organization Hausarzt</b></p><a name=\"Hausarzt\"> </a><a name=\"hcHausarzt\"> </a><a name=\"Hausarzt-en-US\"> </a><div style=\"display: inline-block; background-color: #d9e0e7; padding: 6px; margin: 4px; border: 1px solid #8da1b4; border-radius: 5px; line-height: 60%\"><p style=\"margin-bottom: 0px\"/><p style=\"margin-bottom: 0px\">Profile: <a href=\"StructureDefinition-ch-emed-organization.html\">CH EMED Organization</a></p></div><p><b>identifier</b>: <a href=\"https://www.gs1.org/standards/id-keys/gln\" title=\"Global Location Number\">GLN</a>/7601000234438</p><p><b>name</b>: Hausarzt</p><p><b>address</b>: Krankenstrasse 2 Zürich 8005 CH </p></div>"
      },
      "identifier" : [{
        "system" : "urn:oid:2.51.1.3",
        "value" : "7601000234438"
      }],
      "name" : "Hausarzt",
      "address" : [{
        "line" : ["Krankenstrasse 2"],
        "city" : "Zürich",
        "postalCode" : "8005",
        "country" : "CH"
      }]
    }
  },
  {
    "fullUrl" : "http://test.fhir.ch/r4/Observation/Obs-ChangeDosage",
    "resource" : {
      "resourceType" : "Observation",
      "id" : "Obs-ChangeDosage",
      "meta" : {
        "profile" : ["http://fhir.ch/ig/ch-emed/StructureDefinition/ch-emed-observation"]
      },
      "text" : {
        "status" : "extensions",
        "div" : "<div xmlns=\"http://www.w3.org/1999/xhtml\"><a name=\"Observation_Obs-ChangeDosage\"> </a><p class=\"res-header-id\"><b>Generated Narrative: Observation Obs-ChangeDosage</b></p><a name=\"Obs-ChangeDosage\"> </a><a name=\"hcObs-ChangeDosage\"> </a><a name=\"Obs-ChangeDosage-en-US\"> </a><div style=\"display: inline-block; background-color: #d9e0e7; padding: 6px; margin: 4px; border: 1px solid #8da1b4; border-radius: 5px; line-height: 60%\"><p style=\"margin-bottom: 0px\"/><p style=\"margin-bottom: 0px\">Profile: <a href=\"StructureDefinition-ch-emed-observation.html\">CH EMED Observation (PADV)</a></p></div><blockquote><p><b>CH EMED Extension Treatment Plan</b></p><ul><li>id: <a href=\"http://terminology.hl7.org/6.3.0/NamingSystem-uri.html\" title=\"As defined by RFC 3986 (http://www.ietf.org/rfc/rfc3986.txt)(with many schemes defined in many RFCs). For OIDs and UUIDs, use the URN form (urn:oid:(note: lowercase) and urn:uuid:). See http://www.ietf.org/rfc/rfc3001.txt and http://www.ietf.org/rfc/rfc4122.txt \r\n\r\nThis oid is used as an identifier II.root to indicate the the extension is an absolute URI (technically, an IRI). Typically, this is used for OIDs and GUIDs. Note that when this OID is used with OIDs and GUIDs, the II.extension should start with urn:oid or urn:uuid: \r\n\r\nNote that this OID is created to aid with interconversion between CDA and FHIR - FHIR uses urn:ietf:rfc:3986 as equivalent to this OID. URIs as identifiers appear more commonly in FHIR.\r\n\r\nThis OID may also be used in CD.codeSystem.\">Uniform Resource Identifier (URI)</a>/urn:uuid:7aa20b27-eac0-4fef-a7b9-b10196718b9f</li><li>externalDocumentId: <a href=\"http://terminology.hl7.org/6.3.0/NamingSystem-uri.html\" title=\"As defined by RFC 3986 (http://www.ietf.org/rfc/rfc3986.txt)(with many schemes defined in many RFCs). For OIDs and UUIDs, use the URN form (urn:oid:(note: lowercase) and urn:uuid:). See http://www.ietf.org/rfc/rfc3001.txt and http://www.ietf.org/rfc/rfc4122.txt \r\n\r\nThis oid is used as an identifier II.root to indicate the the extension is an absolute URI (technically, an IRI). Typically, this is used for OIDs and GUIDs. Note that when this OID is used with OIDs and GUIDs, the II.extension should start with urn:oid or urn:uuid: \r\n\r\nNote that this OID is created to aid with interconversion between CDA and FHIR - FHIR uses urn:ietf:rfc:3986 as equivalent to this OID. URIs as identifiers appear more commonly in FHIR.\r\n\r\nThis OID may also be used in CD.codeSystem.\">Uniform Resource Identifier (URI)</a>/urn:uuid:7aa20b27-eac0-4fef-a7b9-b10196718b9f</li></ul></blockquote><p><b>CH EMED Extension MedicationStatement Changed</b>: <a href=\"MedicationStatement-MedStatTriatec-ChangeDosage.html\">MedicationStatement: identifier = UUID:7aa20b27-eac0-4fef-a7b9-b10196718b9f; status = active; medication[x] = -&gt;Medication AMLODIPIN Spirig HC Tabl 10 mg; dateAsserted = 2012-02-04 14:00:00+0100; reasonCode = </a></p><p><b>identifier</b>: <a href=\"http://terminology.hl7.org/6.3.0/NamingSystem-uri.html\" title=\"As defined by RFC 3986 (http://www.ietf.org/rfc/rfc3986.txt)(with many schemes defined in many RFCs). For OIDs and UUIDs, use the URN form (urn:oid:(note: lowercase) and urn:uuid:). See http://www.ietf.org/rfc/rfc3001.txt and http://www.ietf.org/rfc/rfc4122.txt \r\n\r\nThis oid is used as an identifier II.root to indicate the the extension is an absolute URI (technically, an IRI). Typically, this is used for OIDs and GUIDs. Note that when this OID is used with OIDs and GUIDs, the II.extension should start with urn:oid or urn:uuid: \r\n\r\nNote that this OID is created to aid with interconversion between CDA and FHIR - FHIR uses urn:ietf:rfc:3986 as equivalent to this OID. URIs as identifiers appear more commonly in FHIR.\r\n\r\nThis OID may also be used in CD.codeSystem.\">Uniform Resource Identifier (URI)</a>/urn:uuid:adab8d2d-ae14-48d6-8d15-b726d6ea82c5</p><p><b>status</b>: Final</p><p><b>code</b>: <span title=\"Codes:{urn:oid:1.3.6.1.4.1.19376.1.9.2.1 CHANGE}\">CHANGE</span></p><p><b>subject</b>: <a href=\"Patient-MonikaWegmueller.html\">Monika Wegmüller  Female, DoB: 1943-05-15 ( Medical record number)</a></p><p><b>effective</b>: 2012-02-04 14:00:00+0100</p><p><b>issued</b>: 2012-02-04 14:00:00+0100</p><p><b>performer</b>: <a href=\"PractitionerRole-FamilienHausarztAtHausarzt.html\">PractitionerRole</a></p><p><b>note</b>: Dosierungsänderung: Morgens 1 Tablette anstatt 0.5 Tablette</p></div>"
      },
      "extension" : [{
        "extension" : [{
          "url" : "id",
          "valueIdentifier" : {
            "system" : "urn:ietf:rfc:3986",
            "value" : "urn:uuid:7aa20b27-eac0-4fef-a7b9-b10196718b9f"
          }
        },
        {
          "url" : "externalDocumentId",
          "valueIdentifier" : {
            "system" : "urn:ietf:rfc:3986",
            "value" : "urn:uuid:7aa20b27-eac0-4fef-a7b9-b10196718b9f"
          }
        }],
        "url" : "http://fhir.ch/ig/ch-emed/StructureDefinition/ch-emed-ext-treatmentplan"
      },
      {
        "url" : "http://fhir.ch/ig/ch-emed/StructureDefinition/ch-emed-ext-medicationstatement-changed",
        "valueReference" : {
          "reference" : "MedicationStatement/MedStatTriatec-ChangeDosage"
        }
      }],
      "identifier" : [{
        "system" : "urn:ietf:rfc:3986",
        "value" : "urn:uuid:adab8d2d-ae14-48d6-8d15-b726d6ea82c5"
      }],
      "status" : "final",
      "code" : {
        "coding" : [{
          "system" : "urn:oid:1.3.6.1.4.1.19376.1.9.2.1",
          "code" : "CHANGE"
        }]
      },
      "subject" : {
        "reference" : "Patient/MonikaWegmueller"
      },
      "effectiveDateTime" : "2012-02-04T14:00:00+01:00",
      "issued" : "2012-02-04T14:00:00+01:00",
      "performer" : [{
        "reference" : "PractitionerRole/FamilienHausarztAtHausarzt"
      }],
      "note" : [{
        "text" : "Dosierungsänderung: Morgens 1 Tablette anstatt 0.5 Tablette"
      }]
    }
  },
  {
    "fullUrl" : "http://test.fhir.ch/r4/MedicationStatement/MedStatTriatec-ChangeDosage",
    "resource" : {
      "resourceType" : "MedicationStatement",
      "id" : "MedStatTriatec-ChangeDosage",
      "meta" : {
        "profile" : ["http://fhir.ch/ig/ch-emed/StructureDefinition/ch-emed-medicationstatement-changed"]
      },
      "text" : {
        "status" : "generated",
        "div" : "<div xmlns=\"http://www.w3.org/1999/xhtml\"><a name=\"MedicationStatement_MedStatTriatec-ChangeDosage\"> </a><p class=\"res-header-id\"><b>Generated Narrative: MedicationStatement MedStatTriatec-ChangeDosage</b></p><a name=\"MedStatTriatec-ChangeDosage\"> </a><a name=\"hcMedStatTriatec-ChangeDosage\"> </a><a name=\"MedStatTriatec-ChangeDosage-en-US\"> </a><div style=\"display: inline-block; background-color: #d9e0e7; padding: 6px; margin: 4px; border: 1px solid #8da1b4; border-radius: 5px; line-height: 60%\"><p style=\"margin-bottom: 0px\"/><p style=\"margin-bottom: 0px\">Profile: <a href=\"StructureDefinition-ch-emed-medicationstatement-changed.html\">CH EMED MedicationStatement Changed</a></p></div><p><b>identifier</b>: <a href=\"http://terminology.hl7.org/6.3.0/NamingSystem-uri.html\" title=\"As defined by RFC 3986 (http://www.ietf.org/rfc/rfc3986.txt)(with many schemes defined in many RFCs). For OIDs and UUIDs, use the URN form (urn:oid:(note: lowercase) and urn:uuid:). See http://www.ietf.org/rfc/rfc3001.txt and http://www.ietf.org/rfc/rfc4122.txt \r\n\r\nThis oid is used as an identifier II.root to indicate the the extension is an absolute URI (technically, an IRI). Typically, this is used for OIDs and GUIDs. Note that when this OID is used with OIDs and GUIDs, the II.extension should start with urn:oid or urn:uuid: \r\n\r\nNote that this OID is created to aid with interconversion between CDA and FHIR - FHIR uses urn:ietf:rfc:3986 as equivalent to this OID. URIs as identifiers appear more commonly in FHIR.\r\n\r\nThis OID may also be used in CD.codeSystem.\">Uniform Resource Identifier (URI)</a>/urn:uuid:7aa20b27-eac0-4fef-a7b9-b10196718b9f</p><p><b>partOf</b>: <a href=\"Observation-Obs-ChangeDosage.html\">Observation CHANGE</a></p><p><b>status</b>: Active</p><p><b>medication</b>: <a href=\"#hcMedStatTriatec-ChangeDosage/Amlodipin\">Medication AMLODIPIN Spirig HC Tabl 10 mg</a></p><p><b>subject</b>: <a href=\"Patient-MonikaWegmueller.html\">Monika Wegmüller  Female, DoB: 1943-05-15 ( Medical record number)</a></p><p><b>dateAsserted</b>: 2012-02-04 14:00:00+0100</p><p><b>informationSource</b>: <a href=\"PractitionerRole-FamilienHausarztAtHausarzt.html\">PractitionerRole</a></p><p><b>reasonCode</b>: <span title=\"Codes:\">Bluthochdruck</span></p><blockquote><p><b>dosage</b></p><p><b>patientInstruction</b>: -</p><p><b>timing</b>: Morning, Once</p><p><b>route</b>: <span title=\"Codes:{urn:oid:0.4.0.127.0.16.1.1.2.1 20053000}\">zum Einnehmen</span></p><h3>DoseAndRates</h3><table class=\"grid\"><tr><td style=\"display: none\">-</td><td><b>Dose[x]</b></td></tr><tr><td style=\"display: none\">*</td><td>1 Tablet (unit of presentation)<span style=\"background: LightGoldenRodYellow\"> (Details: SNOMED CT  code732936001 = 'Tablet (unit of presentation)')</span></td></tr></table></blockquote><hr/><blockquote><p class=\"res-header-id\"><b>Generated Narrative: Medication #Amlodipin</b></p><a name=\"MedStatTriatec-ChangeDosage/Amlodipin\"> </a><a name=\"hcMedStatTriatec-ChangeDosage/Amlodipin\"> </a><a name=\"MedStatTriatec-ChangeDosage/Amlodipin-en-US\"> </a><div style=\"display: inline-block; background-color: #d9e0e7; padding: 6px; margin: 4px; border: 1px solid #8da1b4; border-radius: 5px; line-height: 60%\"><p style=\"margin-bottom: 0px\"/><p style=\"margin-bottom: 0px\">Profile: <a href=\"StructureDefinition-ch-emed-medication.html\">CH EMED Medication</a></p></div><p><b>code</b>: <span title=\"Codes:{urn:oid:2.51.1.1 7680588620079}\">AMLODIPIN Spirig HC Tabl 10 mg</span></p><p><b>form</b>: <span title=\"Codes:{urn:oid:0.4.0.127.0.16.1.1.2.1 10219000}\">Tablette</span></p><p><b>amount</b>: 30 Tablet (unit of presentation)<span style=\"background: LightGoldenRodYellow\"> (Details: SNOMED CT  code732936001 = 'Tablet (unit of presentation)')</span>/1 Package - unit of product usage (qualifier value)<span style=\"background: LightGoldenRodYellow\"> (Details: SNOMED CT  code1681000175101 = 'Package - unit of product usage')</span></p><h3>Ingredients</h3><table class=\"grid\"><tr><td style=\"display: none\">-</td><td><b>Item[x]</b></td><td><b>Strength</b></td></tr><tr><td style=\"display: none\">*</td><td><span title=\"Codes:{http://snomed.info/sct 386864001}\">Amlodipine</span></td><td>10 milligram<span style=\"background: LightGoldenRodYellow\"> (Details: UCUM  codemg = 'mg')</span>/1 Tablet (unit of presentation)<span style=\"background: LightGoldenRodYellow\"> (Details: SNOMED CT  code732936001 = 'Tablet (unit of presentation)')</span></td></tr></table></blockquote></div>"
      },
      "contained" : [{
        "resourceType" : "Medication",
        "id" : "Amlodipin",
        "meta" : {
          "profile" : ["http://fhir.ch/ig/ch-emed/StructureDefinition/ch-emed-medication"]
        },
        "code" : {
          "coding" : [{
            "system" : "urn:oid:2.51.1.1",
            "code" : "7680588620079",
            "display" : "AMLODIPIN Spirig HC Tabl 10 mg"
          }],
          "text" : "AMLODIPIN Spirig HC Tabl 10 mg"
        },
        "form" : {
          "coding" : [{
            "system" : "urn:oid:0.4.0.127.0.16.1.1.2.1",
            "code" : "10219000",
            "display" : "Tablet"
          }],
          "text" : "Tablette"
        },
        "amount" : {
          "numerator" : {
            "value" : 30,
            "unit" : "Tablet (unit of presentation)",
            "system" : "http://snomed.info/sct",
            "code" : "732936001"
          },
          "denominator" : {
            "value" : 1,
            "unit" : "Package - unit of product usage (qualifier value)",
            "system" : "http://snomed.info/sct",
            "code" : "1681000175101"
          }
        },
        "ingredient" : [{
          "itemCodeableConcept" : {
            "coding" : [{
              "system" : "http://snomed.info/sct",
              "code" : "386864001",
              "display" : "Amlodipine (substance)"
            }],
            "text" : "Amlodipine"
          },
          "strength" : {
            "numerator" : {
              "value" : 10,
              "unit" : "milligram",
              "system" : "http://unitsofmeasure.org",
              "code" : "mg"
            },
            "denominator" : {
              "value" : 1,
              "unit" : "Tablet (unit of presentation)",
              "system" : "http://snomed.info/sct",
              "code" : "732936001"
            }
          }
        }]
      }],
      "identifier" : [{
        "system" : "urn:ietf:rfc:3986",
        "value" : "urn:uuid:7aa20b27-eac0-4fef-a7b9-b10196718b9f"
      }],
      "partOf" : [{
        "reference" : "Observation/Obs-ChangeDosage"
      }],
      "status" : "active",
      "medicationReference" : {
        "reference" : "#Amlodipin"
      },
      "subject" : {
        "reference" : "Patient/MonikaWegmueller"
      },
      "dateAsserted" : "2012-02-04T14:00:00+01:00",
      "informationSource" : {
        "reference" : "PractitionerRole/FamilienHausarztAtHausarzt"
      },
      "reasonCode" : [{
        "text" : "Bluthochdruck"
      }],
      "dosage" : [{
        "patientInstruction" : "-",
        "timing" : {
          "repeat" : {
            "boundsPeriod" : {
              "start" : "2011-11-29"
            },
            "when" : ["MORN"]
          }
        },
        "route" : {
          "coding" : [{
            "system" : "urn:oid:0.4.0.127.0.16.1.1.2.1",
            "code" : "20053000",
            "display" : "Oral use"
          }],
          "text" : "zum Einnehmen"
        },
        "doseAndRate" : [{
          "doseQuantity" : {
            "value" : 1,
            "unit" : "Tablet (unit of presentation)",
            "system" : "http://snomed.info/sct",
            "code" : "732936001"
          }
        }]
      }]
    }
  }]
}