<?xml version="1.0" encoding="UTF-8"?>

<Bundle xmlns="http://hl7.org/fhir">
  <id value="1-tvt-document-with-sr"/>
  <meta>
    <versionId value="1"/>
    <lastUpdated value="2019-04-01T20:18:41.341+00:00"/>
    <profile value="http://fhir.ch/ig/ch-lab-order/StructureDefinition/ch-lab-order-document-with-sr"/>
  </meta>
  <identifier>
    <system value="urn:ietf:rfc:3986"/>
    <value value="urn:uuid:26d3dff7-ab05-4737-a49c-5eccd33595f8"/>
  </identifier>
  <type value="document"/>
  <timestamp value="2019-04-01T20:18:41.341+00:00"/>
  <entry>
    <fullUrl value="http://example.com/fhir/Composition/1-tvt-CompositionWithSR"/>
    <resource>
      <Composition>
        <id value="1-tvt-CompositionWithSR"/>
        <meta>
          <versionId value="1"/>
          <lastUpdated value="2022-10-20T17:04:38.520+00:00"/>
          <profile value="http://fhir.ch/ig/ch-lab-order/StructureDefinition/ch-lab-order-composition-with-sr"/>
        </meta>
        <text>
          <status value="additional"/><div xmlns="http://www.w3.org/1999/xhtml"><div>Case study 1</div><div><h3>Suspicion of deep vein thrombosis</h3><p>A patient, Tobias Timmermann, presents to Dr. med. Marc Mustermann at the Olten group practice on 09.03.2016. He verbally identifies himself via his master data as Tobias Timmermann, 01.01.1984. He reports unclear leg pain in the left lower leg as well as simultaneously occurring respiratory pain and cough. The doctor carries out the anamnesis and physical examination and prescribes the following laboratory parameters:</p><ul><li>Blood cell count incl. differentiation</li><li>CRP</li><li>D-dimer</li></ul><p>The doctor carries out the Blood count and the CRP determination himself by means of point of care diagnostics, the D-dimer diagnostics is prescribed as quantitative diagnostics in an external sending laboratory. To obtain the sample, a Blood sample is taken lying down (1 EDTA tube, 2 citrate tubes of 5 ml). The order is transmitted to the external laboratory and the sample is sent to the external dispatch laboratory by courier ordered by telephone. The results of the internal point of care diagnostics (Blood count and CRP) are entered in the patient`s laboratory sheet in the doctor`s office software (manually or via locally installed electronic interfaces). A prescription is therefore issued by the doctor to the patient for self-administration of an anti-thrombotic agent. The results of the sending-in laboratory arrive electronically at the GP`s on the same evening and are also entered in the patient`s laboratory sheet. By using the present exchange format, this process can be fully automated. After a telephone enquiry by the doctor at the sending laboratory due to a borderline D-dimer result, the information is given that a deep vein thrombosis cannot be ruled out in this situation by means of D-dimer and the patient is therefore called back the next day for a sonography of the legs.</p><p>As it is probably a primary leg vein thrombosis, Dr Eva Erlenmeier from the Pipette laboratory sends feedback to Dr Mustermann with the recommendation to carry out a thrombophilia screening, which includes the following analyses: Quick, aPTT, fibrinogen, antithrombin (funct.), thrombin time I 2.5 NIH/ml, APC resistance, D-dimers, protein C, (aPTT method), protein S antigen. The analyses can be carried out directly from the samples of the citrate tubes sent along.</p></div></div>
        </text>
        <extension url="http://fhir.ch/ig/ch-core/StructureDefinition/ch-ext-epr-dataenterer">
          <extension url="enterer">
            <valueReference>
              <reference value="PractitionerRole/MarcMustermannGruppenpraxis"/>
            </valueReference>
          </extension>
        </extension>
        <extension url="http://fhir.ch/ig/ch-orf/StructureDefinition/ch-orf-urgentnoficationcontactforthisdocument">
          <valueReference>
            <reference value="PractitionerRole/EvaErlenmeyerLaborPipette"/>
          </valueReference>
        </extension>
        <extension url="http://fhir.ch/ig/ch-orf/StructureDefinition/ch-orf-urgentnoficationcontactfortheresponsetothisdocument">
          <valueReference>
            <reference value="PractitionerRole/MarcMustermannGruppenpraxis"/>
          </valueReference>
        </extension>
        <extension url="http://fhir.ch/ig/ch-orf/StructureDefinition/ch-orf-receiver">
          <valueReference>
            <reference value="PractitionerRole/EvaErlenmeyerLaborPipette"/>
          </valueReference>
        </extension>
        <extension url="http://fhir.ch/ig/ch-orf/StructureDefinition/ch-orf-copyreceiver">
          <valueReference>
            <reference value="PractitionerRole/MarcMustermannGruppenpraxis"/>
          </valueReference>
        </extension>
        <extension url="http://fhir.ch/ig/ch-orf/StructureDefinition/ch-orf-copyreceiver">
          <valueReference>
            <reference value="Patient/TobiasTimmermann"/>
          </valueReference>
        </extension>
        <status value="final"/>
        <type>
          <coding>
            <system value="http://snomed.info/sct"/>
            <code value="721965002"/>
            <display value="Laboratory order (record artifact)"/>
          </coding>
        </type>
        <category>
          <coding>
            <system value="http://snomed.info/sct"/>
            <code value="721963009"/>
            <display value="Order (record artifact)"/>
          </coding>
        </category>
        <subject>
          <reference value="Patient/TobiasTimmermann"/>
        </subject>
        <date value="2025-03-05T11:46:09+02:00"/>
        <author>
          <reference value="PractitionerRole/MarcMustermannGruppenpraxis"/>
        </author>
        <title value="Laboratory order 1-tvt"/>
        <section>
          <title value="Laboratory Order with Service Request 1-tvt"/>
          <code>
            <coding>
              <system value="http://snomed.info/sct"/>
              <code value="721963009"/>
              <display value="Order (record artifact)"/>
            </coding>
          </code>
          <text>
            <status value="generated"/><div xmlns="http://www.w3.org/1999/xhtml">Laboratory Order with Service Request 1-tvt</div>
          </text>
          <entry>
            <reference value="ServiceRequest/1-tvt-ServiceRequest-0"/>
          </entry>
          <entry>
            <reference value="ServiceRequest/1-tvt-ServiceRequest-1"/>
          </entry>
          <entry>
            <reference value="ServiceRequest/1-tvt-ServiceRequest-2"/>
          </entry>
          <entry>
            <reference value="ServiceRequest/1-tvt-ServiceRequest-3"/>
          </entry>
          <entry>
            <reference value="ServiceRequest/1-tvt-ServiceRequest-4"/>
          </entry>
          <entry>
            <reference value="ServiceRequest/1-tvt-ServiceRequest-5"/>
          </entry>
        </section>
      </Composition>
    </resource>
  </entry>
  <entry>
    <fullUrl value="http://example.com/fhir/Patient/TobiasTimmermann"/>
    <resource>
      <Patient>
        <id value="TobiasTimmermann"/>
        <meta>
          <profile value="http://fhir.ch/ig/ch-core/StructureDefinition/ch-core-patient"/>
        </meta>
        <text>
          <status value="additional"/><div xmlns="http://www.w3.org/1999/xhtml"><p><b>id</b>: TobiasTimmermann</p><p><b>meta</b>:</p><p><b>identifier</b>: 80756011110123400003</p><p><b>name</b>: Tobias Timmermann</p><p><b>gender</b>: MALE</p><p><b>birthDate</b>: Jan 01, 1981</p><p><b>maritalStatus</b>: unverheiratet <span style="background: LightGoldenRodYellow">(Details : {$ech-11-maritalstatus code '5' = '5', given as 'unverheiratet'})</span></p><h3>Communications</h3><table class="grid"><tr><td>-</td><td><b>Language</b></td><td><b>Preferred</b></td></tr><tr><td>*</td><td>Deutsch (Schweiz) <span style="background: LightGoldenRodYellow">(Details : {urn:ietf:bcp:47 code 'de-CH' = 'German (Region=Schweiz))</span></td><td>true</td></tr></table></div>
        </text>
        <extension url="http://hl7.org/fhir/StructureDefinition/patient-birthPlace">
          <valueAddress>
            <city value="Zürich"/>
            <country value="Schweiz"/>
          </valueAddress>
        </extension>
        <extension url="http://fhir.ch/ig/ch-core/StructureDefinition/ch-core-patient-ech-11-placeoforigin">
          <valueAddress>
            <city value="Breitenbach"/>
            <state value="BL"/>
          </valueAddress>
        </extension>
        <extension url="http://hl7.org/fhir/StructureDefinition/patient-religion">
          <valueCodeableConcept>
            <coding>
              <system value="http://terminology.hl7.org/CodeSystem/v3-ReligiousAffiliation"/>
              <code value="1007"/>
              <display value="Atheism"/>
            </coding>
          </valueCodeableConcept>
        </extension>
        <identifier>
          <system value="urn:oid:2.16.756.5.30.1.123.100.1.1.1"/>
          <value value="80756011110123400003"/>
        </identifier>
        <name>
          <family value="Timmermann"/>
          <given value="Tobias"/>
        </name>
        <telecom>
          <system value="phone"/>
          <value value="079 979 79 79"/>
          <use value="home"/>
        </telecom>
        <telecom>
          <system value="email"/>
          <value value="tobias.timmermann@example.ch"/>
        </telecom>
        <gender value="male"/>
        <birthDate value="1984-01-01"/>
        <maritalStatus>
          <coding>
            <system value="http://fhir.ch/ig/ch-core/CodeSystem/ech-11-maritalstatus"/>
            <code value="5"/>
            <display value="unverheiratet"/>
          </coding>
        </maritalStatus>
        <communication>
          <language>
            <coding>
              <system value="urn:ietf:bcp:47"/>
              <code value="de-CH"/>
            </coding>
            <text value="Deutsch (Schweiz)"/>
          </language>
          <preferred value="true"/>
        </communication>
      </Patient>
    </resource>
  </entry>
  <entry>
    <fullUrl value="http://example.com/fhir/Practitioner/MarcMustermann"/>
    <resource>
      <Practitioner>
        <id value="MarcMustermann"/>
        <meta>
          <profile value="http://fhir.ch/ig/ch-core/StructureDefinition/ch-core-practitioner"/>
        </meta>
        <text>
          <status value="generated"/><div xmlns="http://www.w3.org/1999/xhtml"><a name="Practitioner_MarcMustermann"> </a><p class="res-header-id"><b>Generated Narrative: Practitioner MarcMustermann</b></p><a name="MarcMustermann"> </a><a name="hcMarcMustermann"> </a><a name="MarcMustermann-en-US"> </a><div style="display: inline-block; background-color: #d9e0e7; padding: 6px; margin: 4px; border: 1px solid #8da1b4; border-radius: 5px; line-height: 60%"><p style="margin-bottom: 0px"/><p style="margin-bottom: 0px">Profile: <a href="http://fhir.ch/ig/ch-core/6.0.0-ballot/StructureDefinition-ch-core-practitioner.html">CH Core Practitioner</a></p></div><p><b>identifier</b>: <a href="https://www.gs1.org/standards/id-keys/gln" title="Global Location Number">GLN</a>/7601000050700, <code>urn:oid:2.16.756.5.30.1.123.100.2.1.1</code>/L248519</p><p><b>name</b>: Marc Mustermann (Official)</p><p><b>telecom</b>: ph: 033 444 22 11(Work), <a href="mailto:marc.mustermann@gruppenpraxis.ch">marc.mustermann@gruppenpraxis.ch</a></p></div>
        </text>
        <identifier>
          <system value="urn:oid:2.51.1.3"/>
          <value value="7601000050700"/>
        </identifier>
        <identifier>
          <system value="urn:oid:2.16.756.5.30.1.123.100.2.1.1"/>
          <value value="L248519"/>
        </identifier>
        <name>
          <use value="official"/>
          <family value="Mustermann"/>
          <given value="Marc"/>
          <prefix value="Dr. med.">
            <extension url="http://hl7.org/fhir/StructureDefinition/iso21090-EN-qualifier">
              <valueCode value="AC"/>
            </extension>
          </prefix>
        </name>
        <telecom>
          <system value="phone"/>
          <value value="033 444 22 11"/>
          <use value="work"/>
        </telecom>
        <telecom>
          <system value="email"/>
          <value value="marc.mustermann@gruppenpraxis.ch"/>
          <use value="work"/>
        </telecom>
      </Practitioner>
    </resource>
  </entry>
  <entry>
    <fullUrl value="http://example.com/fhir/PractitionerRole/MarcMustermannGruppenpraxis"/>
    <resource>
      <PractitionerRole>
        <id value="MarcMustermannGruppenpraxis"/>
        <meta>
          <profile value="http://fhir.ch/ig/ch-core/StructureDefinition/ch-core-practitionerrole"/>
        </meta>
        <text>
          <status value="generated"/><div xmlns="http://www.w3.org/1999/xhtml"><a name="PractitionerRole_MarcMustermannGruppenpraxis"> </a><p class="res-header-id"><b>Generated Narrative: PractitionerRole MarcMustermannGruppenpraxis</b></p><a name="MarcMustermannGruppenpraxis"> </a><a name="hcMarcMustermannGruppenpraxis"> </a><a name="MarcMustermannGruppenpraxis-en-US"> </a><div style="display: inline-block; background-color: #d9e0e7; padding: 6px; margin: 4px; border: 1px solid #8da1b4; border-radius: 5px; line-height: 60%"><p style="margin-bottom: 0px"/><p style="margin-bottom: 0px">Profile: <a href="http://fhir.ch/ig/ch-core/6.0.0-ballot/StructureDefinition-ch-core-practitionerrole.html">CH Core PractitionerRole</a></p></div><p><b>practitioner</b>: <a href="Practitioner-MarcMustermann.html">Practitioner Marc Mustermann (official)</a></p><p><b>organization</b>: <a href="Organization-Gruppenpraxis.html">Organization Gruppenpraxis Olten</a></p></div>
        </text>
        <practitioner>
          <reference value="Practitioner/MarcMustermann"/>
        </practitioner>
        <organization>
          <reference value="Organization/Gruppenpraxis"/>
        </organization>
      </PractitionerRole>
    </resource>
  </entry>
  <entry>
    <fullUrl value="http://example.com/fhir/Organization/Gruppenpraxis"/>
    <resource>
      <Organization>
        <id value="Gruppenpraxis"/>
        <meta>
          <profile value="http://fhir.ch/ig/ch-core/StructureDefinition/ch-core-organization-epr"/>
        </meta>
        <text>
          <status value="generated"/><div xmlns="http://www.w3.org/1999/xhtml"><a name="Organization_Gruppenpraxis"> </a><p class="res-header-id"><b>Generated Narrative: Organization Gruppenpraxis</b></p><a name="Gruppenpraxis"> </a><a name="hcGruppenpraxis"> </a><a name="Gruppenpraxis-en-US"> </a><div style="display: inline-block; background-color: #d9e0e7; padding: 6px; margin: 4px; border: 1px solid #8da1b4; border-radius: 5px; line-height: 60%"><p style="margin-bottom: 0px"/><p style="margin-bottom: 0px">Profile: <a href="http://fhir.ch/ig/ch-core/6.0.0-ballot/StructureDefinition-ch-core-organization-epr.html">CH Core Organization EPR</a></p></div><p><b>identifier</b>: <a href="https://www.gs1.org/standards/id-keys/gln" title="Global Location Number">GLN</a>/7601000241115</p><p><b>name</b>: Gruppenpraxis Olten</p><p><b>telecom</b>: <a href="tel:+41555556677">+41555556677</a>, <a href="mailto:info@gruppenpraxis.ch">info@gruppenpraxis.ch</a>, <a href="http://www.gruppenpraxis.ch">http://www.gruppenpraxis.ch</a></p><p><b>address</b>: Gerbergasse 12 Olten 4600 CH </p></div>
        </text>
        <identifier>
          <system value="urn:oid:2.51.1.3"/>
          <value value="7601000241115"/>
        </identifier>
        <name value="Gruppenpraxis Olten"/>
        <telecom>
          <system value="phone"/>
          <value value="+41555556677"/>
          <use value="work"/>
        </telecom>
        <telecom>
          <system value="email"/>
          <value value="info@gruppenpraxis.ch"/>
          <use value="work"/>
        </telecom>
        <telecom>
          <system value="url"/>
          <value value="http://www.gruppenpraxis.ch"/>
          <use value="work"/>
        </telecom>
        <address>
          <line value="Gerbergasse 12"/>
          <city value="Olten"/>
          <postalCode value="4600"/>
          <country value="CH"/>
        </address>
      </Organization>
    </resource>
  </entry>
  <entry>
    <fullUrl value="http://example.com/fhir/Practitioner/EvaErlenmeyer"/>
    <resource>
      <Practitioner>
        <id value="EvaErlenmeyer"/>
        <meta>
          <profile value="http://fhir.ch/ig/ch-core/StructureDefinition/ch-core-practitioner"/>
        </meta>
        <text>
          <status value="generated"/><div xmlns="http://www.w3.org/1999/xhtml"><a name="Practitioner_EvaErlenmeyer"> </a><p class="res-header-id"><b>Generated Narrative: Practitioner EvaErlenmeyer</b></p><a name="EvaErlenmeyer"> </a><a name="hcEvaErlenmeyer"> </a><a name="EvaErlenmeyer-en-US"> </a><div style="display: inline-block; background-color: #d9e0e7; padding: 6px; margin: 4px; border: 1px solid #8da1b4; border-radius: 5px; line-height: 60%"><p style="margin-bottom: 0px"/><p style="margin-bottom: 0px">Profile: <a href="http://fhir.ch/ig/ch-core/6.0.0-ballot/StructureDefinition-ch-core-practitioner.html">CH Core Practitioner</a></p></div><p><b>identifier</b>: <a href="https://www.gs1.org/standards/id-keys/gln" title="Global Location Number">GLN</a>/7601000050717, <code>urn:oid:2.16.756.5.30.1.123.100.2.1.1</code>/Y274589</p><p><b>name</b>: Eva Erlenmeyer (Official)</p><p><b>telecom</b>: ph: 033 444 55 66(Work), <a href="mailto:eva.erlenmeyer@labor-pipette.ch">eva.erlenmeyer@labor-pipette.ch</a></p></div>
        </text>
        <identifier>
          <system value="urn:oid:2.51.1.3"/>
          <value value="7601000050717"/>
        </identifier>
        <identifier>
          <system value="urn:oid:2.16.756.5.30.1.123.100.2.1.1"/>
          <value value="Y274589"/>
        </identifier>
        <name>
          <use value="official"/>
          <family value="Erlenmeyer"/>
          <given value="Eva"/>
          <prefix value="Dr. med.">
            <extension url="http://hl7.org/fhir/StructureDefinition/iso21090-EN-qualifier">
              <valueCode value="AC"/>
            </extension>
          </prefix>
        </name>
        <telecom>
          <system value="phone"/>
          <value value="033 444 55 66"/>
          <use value="work"/>
        </telecom>
        <telecom>
          <system value="email"/>
          <value value="eva.erlenmeyer@labor-pipette.ch"/>
          <use value="work"/>
        </telecom>
      </Practitioner>
    </resource>
  </entry>
  <entry>
    <fullUrl value="http://example.com/fhir/Organization/LaborPipette"/>
    <resource>
      <Organization>
        <id value="LaborPipette"/>
        <meta>
          <profile value="http://fhir.ch/ig/ch-core/StructureDefinition/ch-core-organization"/>
        </meta>
        <text>
          <status value="generated"/><div xmlns="http://www.w3.org/1999/xhtml"><a name="Organization_LaborPipette"> </a><p class="res-header-id"><b>Generated Narrative: Organization LaborPipette</b></p><a name="LaborPipette"> </a><a name="hcLaborPipette"> </a><a name="LaborPipette-en-US"> </a><div style="display: inline-block; background-color: #d9e0e7; padding: 6px; margin: 4px; border: 1px solid #8da1b4; border-radius: 5px; line-height: 60%"><p style="margin-bottom: 0px"/><p style="margin-bottom: 0px">Profile: <a href="http://fhir.ch/ig/ch-core/6.0.0-ballot/StructureDefinition-ch-core-organization.html">CH Core Organization</a></p></div><p><b>identifier</b>: <a href="https://www.gs1.org/standards/id-keys/gln" title="Global Location Number">GLN</a>/7601000234407</p><p><b>name</b>: Labor Pipette</p><p><b>telecom</b>: <a href="tel:+41223345566">+41223345566</a>, <a href="mailto:info@labor-pipette.ch">info@labor-pipette.ch</a>, <a href="http://www.labor-pipette.ch">http://www.labor-pipette.ch</a></p><p><b>address</b>: Laborstrasse 23 Olten 4600 CH </p></div>
        </text>
        <identifier>
          <system value="urn:oid:2.51.1.3"/>
          <value value="7601000234407"/>
        </identifier>
        <name value="Labor Pipette"/>
        <telecom>
          <system value="phone"/>
          <value value="+41223345566"/>
          <use value="work"/>
        </telecom>
        <telecom>
          <system value="email"/>
          <value value="info@labor-pipette.ch"/>
          <use value="work"/>
        </telecom>
        <telecom>
          <system value="url"/>
          <value value="http://www.labor-pipette.ch"/>
          <use value="work"/>
        </telecom>
        <address>
          <line value="Laborstrasse 23"/>
          <city value="Olten"/>
          <postalCode value="4600"/>
          <country value="CH"/>
        </address>
      </Organization>
    </resource>
  </entry>
  <entry>
    <fullUrl value="http://example.com/fhir/PractitionerRole/EvaErlenmeyerLaborPipette"/>
    <resource>
      <PractitionerRole>
        <id value="EvaErlenmeyerLaborPipette"/>
        <meta>
          <profile value="http://fhir.ch/ig/ch-core/StructureDefinition/ch-core-practitionerrole"/>
        </meta>
        <text>
          <status value="generated"/><div xmlns="http://www.w3.org/1999/xhtml"><a name="PractitionerRole_EvaErlenmeyerLaborPipette"> </a><p class="res-header-id"><b>Generated Narrative: PractitionerRole EvaErlenmeyerLaborPipette</b></p><a name="EvaErlenmeyerLaborPipette"> </a><a name="hcEvaErlenmeyerLaborPipette"> </a><a name="EvaErlenmeyerLaborPipette-en-US"> </a><div style="display: inline-block; background-color: #d9e0e7; padding: 6px; margin: 4px; border: 1px solid #8da1b4; border-radius: 5px; line-height: 60%"><p style="margin-bottom: 0px"/><p style="margin-bottom: 0px">Profile: <a href="http://fhir.ch/ig/ch-core/6.0.0-ballot/StructureDefinition-ch-core-practitionerrole.html">CH Core PractitionerRole</a></p></div><p><b>identifier</b>: <code>urn:oid:2.16.756.5.30.1.123.100.2.1.1</code>/K333333</p><p><b>practitioner</b>: <a href="Practitioner-EvaErlenmeyer.html">Practitioner Eva Erlenmeyer (official)</a></p><p><b>organization</b>: <a href="Organization-LaborPipette.html">Organization Labor Pipette</a></p></div>
        </text>
        <identifier>
          <system value="urn:oid:2.16.756.5.30.1.123.100.2.1.1"/>
          <value value="K333333"/>
        </identifier>
        <practitioner>
          <reference value="Practitioner/EvaErlenmeyer"/>
        </practitioner>
        <organization>
          <reference value="Organization/LaborPipette"/>
        </organization>
      </PractitionerRole>
    </resource>
  </entry>
  <entry>
    <fullUrl value="http://example.com/fhir/Coverage/HealthInsuranceCardTobiasTimmermann"/>
    <resource>
      <Coverage>
        <id value="HealthInsuranceCardTobiasTimmermann"/>
        <meta>
          <profile value="http://fhir.ch/ig/ch-core/StructureDefinition/ch-core-coverage"/>
        </meta>
        <text>
          <status value="generated"/><div xmlns="http://www.w3.org/1999/xhtml"><a name="Coverage_HealthInsuranceCardTobiasTimmermann"> </a><p class="res-header-id"><b>Generated Narrative: Coverage HealthInsuranceCardTobiasTimmermann</b></p><a name="HealthInsuranceCardTobiasTimmermann"> </a><a name="hcHealthInsuranceCardTobiasTimmermann"> </a><a name="HealthInsuranceCardTobiasTimmermann-en-US"> </a><div style="display: inline-block; background-color: #d9e0e7; padding: 6px; margin: 4px; border: 1px solid #8da1b4; border-radius: 5px; line-height: 60%"><p style="margin-bottom: 0px"/><p style="margin-bottom: 0px">Profile: <a href="http://fhir.ch/ig/ch-core/6.0.0-ballot/StructureDefinition-ch-core-coverage.html">CH Core Coverage</a></p></div><p><b>identifier</b>: Insurance Card Number/80756011110123400003</p><p><b>status</b>: Active</p><p><b>type</b>: <span title="Codes:{http://fhir.ch/ig/ch-core/CodeSystem/bfs-medstats-25-mainguarantor 1}">Krankenversicherung (obligat.)</span></p><p><b>subscriber</b>: <a href="Patient-TobiasTimmermann.html">Tobias Timmermann  Male, DoB: 1984-01-01 ( urn:oid:2.16.756.5.30.1.123.100.1.1.1#80756011110123400003)</a></p><p><b>beneficiary</b>: <a href="Patient-TobiasTimmermann.html">Tobias Timmermann  Male, DoB: 1984-01-01 ( urn:oid:2.16.756.5.30.1.123.100.1.1.1#80756011110123400003)</a></p><p><b>period</b>: ?? --&gt; 2024-12-31</p><p><b>payor</b>: Krankenkasse AG (Identifier: <code>http://example.org/insurer</code>/123456789)</p></div>
        </text>
        <identifier>
          <type>
            <coding>
              <system value="http://fhir.ch/ig/ch-orf/CodeSystem/ch-orf-cs-coverageidentifiertype"/>
              <code value="VeKa"/>
            </coding>
          </type>
          <system value="http://example.org/insurer/123456789/member"/>
          <value value="80756011110123400003"/>
        </identifier>
        <status value="active"/>
        <type>
          <coding>
            <system value="http://fhir.ch/ig/ch-core/CodeSystem/bfs-medstats-25-mainguarantor"/>
            <code value="1"/>
            <display value="Krankenversicherung (obligat.)"/>
          </coding>
        </type>
        <subscriber>
          <reference value="Patient/TobiasTimmermann"/>
        </subscriber>
        <beneficiary>
          <reference value="Patient/TobiasTimmermann"/>
        </beneficiary>
        <period>
          <end value="2024-12-31"/>
        </period>
        <payor>
          <identifier>
            <system value="http://example.org/insurer"/>
            <value value="123456789"/>
          </identifier>
          <display value="Krankenkasse AG"/>
        </payor>
      </Coverage>
    </resource>
  </entry>
  <entry>
    <fullUrl value="http://example.com/fhir/Condition/ConditionRenalInsufficiency"/>
    <resource>
      <Condition>
        <id value="ConditionRenalInsufficiency"/>
        <text>
          <status value="generated"/><div xmlns="http://www.w3.org/1999/xhtml"><a name="Condition_ConditionRenalInsufficiency"> </a><p class="res-header-id"><b>Generated Narrative: Condition ConditionRenalInsufficiency</b></p><a name="ConditionRenalInsufficiency"> </a><a name="hcConditionRenalInsufficiency"> </a><a name="ConditionRenalInsufficiency-en-US"> </a><p><b>clinicalStatus</b>: <span title="Codes:{http://terminology.hl7.org/CodeSystem/condition-clinical active}">Active</span></p><p><b>verificationStatus</b>: <span title="Codes:{http://terminology.hl7.org/CodeSystem/condition-ver-status confirmed}">Confirmed</span></p><p><b>category</b>: <span title="Codes:{http://terminology.hl7.org/CodeSystem/condition-category problem-list-item}">Problem List Item</span></p><p><b>severity</b>: <span title="Codes:{http://snomed.info/sct 255604002}">Mild (qualifier value)</span></p><p><b>code</b>: <span title="Codes:{http://snomed.info/sct 723190009}">Chronic renal insufficiency (disorder)</span></p><p><b>subject</b>: <a href="Patient-TobiasTimmermann.html">Tobias Timmermann</a></p><p><b>onset</b>: 2023-08-05</p><p><b>recordedDate</b>: 2023-10-05</p><p><b>asserter</b>: <a href="Patient-TobiasTimmermann.html">Tobias Timmermann</a></p></div>
        </text>
        <clinicalStatus>
          <coding>
            <system value="http://terminology.hl7.org/CodeSystem/condition-clinical"/>
            <code value="active"/>
          </coding>
        </clinicalStatus>
        <verificationStatus>
          <coding>
            <system value="http://terminology.hl7.org/CodeSystem/condition-ver-status"/>
            <code value="confirmed"/>
          </coding>
        </verificationStatus>
        <category>
          <coding>
            <system value="http://terminology.hl7.org/CodeSystem/condition-category"/>
            <code value="problem-list-item"/>
          </coding>
        </category>
        <severity>
          <coding>
            <system value="http://snomed.info/sct"/>
            <code value="255604002"/>
            <display value="Mild (qualifier value)"/>
          </coding>
        </severity>
        <code>
          <coding>
            <system value="http://snomed.info/sct"/>
            <code value="723190009"/>
            <display value="Chronic renal insufficiency (disorder)"/>
          </coding>
        </code>
        <subject>
          <reference value="Patient/TobiasTimmermann"/>
          <display value="Tobias Timmermann"/>
        </subject>
        <onsetDateTime value="2023-08-05"/>
        <recordedDate value="2023-10-05"/>
        <asserter>
          <reference value="Patient/TobiasTimmermann"/>
          <display value="Tobias Timmermann"/>
        </asserter>
      </Condition>
    </resource>
  </entry>
  <entry>
    <fullUrl value="http://example.com/fhir/Specimen/Serum-1-tvt"/>
    <resource>
      <Specimen>
        <id value="Serum-1-tvt"/>
        <text>
          <status value="generated"/><div xmlns="http://www.w3.org/1999/xhtml"><a name="Specimen_Serum-1-tvt"> </a><p class="res-header-id"><b>Generated Narrative: Specimen Serum-1-tvt</b></p><a name="Serum-1-tvt"> </a><a name="hcSerum-1-tvt"> </a><a name="Serum-1-tvt-en-US"> </a><p><b>identifier</b>: 48736-12345-75465</p><p><b>accessionIdentifier</b>: 4e88a-12345-dd888</p><p><b>status</b>: Available</p><p><b>type</b>: <span title="Codes:{http://snomed.info/sct 119364003}">Serum specimen (specimen)</span></p><p><b>subject</b>: <a href="Patient-TobiasTimmermann.html">Tobias Timmermann  Male, DoB: 1984-01-01 ( urn:oid:2.16.756.5.30.1.123.100.1.1.1#80756011110123400003)</a></p><h3>Collections</h3><table class="grid"><tr><td style="display: none">-</td><td><b>Collector</b></td><td><b>Collected[x]</b></td><td><b>BodySite</b></td><td><b>FastingStatus[x]</b></td></tr><tr><td style="display: none">*</td><td><a href="Practitioner-MarcMustermann.html">Practitioner Marc Mustermann (official)</a></td><td>2015-08-16 06:40:17+0000</td><td><span title="Codes:{http://snomed.info/sct 49852007}">Structure of median cubital vein (body structure)</span></td><td><span title="Codes:{http://terminology.hl7.org/CodeSystem/v2-0916 F}">Patient was fasting prior to the procedure.</span></td></tr></table><h3>Containers</h3><table class="grid"><tr><td style="display: none">-</td><td><b>Type</b></td></tr><tr><td style="display: none">*</td><td><span title="Codes:{http://snomed.info/sct 706053007}">General specimen container (physical object)</span></td></tr></table></div>
        </text>
        <identifier>
          <value value="48736-12345-75465"/>
        </identifier>
        <accessionIdentifier>
          <value value="4e88a-12345-dd888"/>
        </accessionIdentifier>
        <status value="available"/>
        <type>
          <coding>
            <system value="http://snomed.info/sct"/>
            <code value="119364003"/>
            <display value="Serum specimen (specimen)"/>
          </coding>
        </type>
        <subject>
          <reference value="Patient/TobiasTimmermann"/>
        </subject>
        <collection>
          <collector>
            <reference value="Practitioner/MarcMustermann"/>
          </collector>
          <collectedDateTime value="2015-08-16T06:40:17Z"/>
          <bodySite>
            <coding>
              <system value="http://snomed.info/sct"/>
              <code value="49852007"/>
              <display value="Structure of median cubital vein (body structure)"/>
            </coding>
          </bodySite>
          <fastingStatusCodeableConcept>
            <coding>
              <system value="http://terminology.hl7.org/CodeSystem/v2-0916"/>
              <code value="F"/>
              <display value="Patient was fasting prior to the procedure."/>
            </coding>
          </fastingStatusCodeableConcept>
        </collection>
        <container>
          <type>
            <coding>
              <system value="http://snomed.info/sct"/>
              <code value="706053007"/>
              <display value="General specimen container (physical object)"/>
            </coding>
          </type>
        </container>
      </Specimen>
    </resource>
  </entry>
  <entry>
    <fullUrl value="http://example.com/fhir/Specimen/Blood-coag-1-tvt"/>
    <resource>
      <Specimen>
        <id value="Blood-coag-1-tvt"/>
        <text>
          <status value="generated"/><div xmlns="http://www.w3.org/1999/xhtml"><a name="Specimen_Blood-coag-1-tvt"> </a><p class="res-header-id"><b>Generated Narrative: Specimen Blood-coag-1-tvt</b></p><a name="Blood-coag-1-tvt"> </a><a name="hcBlood-coag-1-tvt"> </a><a name="Blood-coag-1-tvt-en-US"> </a><p><b>identifier</b>: 48736-55555-75465</p><p><b>accessionIdentifier</b>: 4e88a-66666-dd888</p><p><b>status</b>: Available</p><p><b>type</b>: <span title="Codes:{http://snomed.info/sct 119297000}">Blood sample</span></p><p><b>subject</b>: <a href="Patient-TobiasTimmermann.html">Tobias Timmermann  Male, DoB: 1984-01-01 ( urn:oid:2.16.756.5.30.1.123.100.1.1.1#80756011110123400003)</a></p><p><b>receivedTime</b>: 2023-12-01 16:40:17+0000</p><h3>Collections</h3><table class="grid"><tr><td style="display: none">-</td><td><b>Collector</b></td><td><b>Collected[x]</b></td></tr><tr><td style="display: none">*</td><td><a href="Practitioner-MarcMustermann.html">Practitioner Marc Mustermann (official)</a></td><td>2023-12-01 17:00:17+0000</td></tr></table><h3>Processings</h3><table class="grid"><tr><td style="display: none">-</td><td><b>Time[x]</b></td></tr><tr><td style="display: none">*</td><td>2023-12-01 17:00:17+0000 --&gt; 2023-12-01 17:30:17+0000</td></tr></table><h3>Containers</h3><table class="grid"><tr><td style="display: none">-</td><td><b>Identifier</b></td><td><b>Description</b></td><td><b>Type</b></td><td><b>Additive[x]</b></td></tr><tr><td style="display: none">*</td><td>4e88a-bc987-dd888-00001-bcoag</td><td>S-Monovette grün</td><td><span title="Codes:{http://snomed.info/sct 702120003}">Blood collection Luer adaptor</span></td><td><span title="Codes:{http://terminology.hl7.org/CodeSystem/v2-0371 C38}">3.8% Citrate</span></td></tr></table></div>
        </text>
        <identifier>
          <value value="48736-55555-75465"/>
        </identifier>
        <accessionIdentifier>
          <value value="4e88a-66666-dd888"/>
        </accessionIdentifier>
        <status value="available"/>
        <type>
          <coding>
            <system value="http://snomed.info/sct"/>
            <code value="119297000"/>
            <display value="Blood sample"/>
          </coding>
        </type>
        <subject>
          <reference value="Patient/TobiasTimmermann"/>
        </subject>
        <receivedTime value="2023-12-01T16:40:17Z"/>
        <collection>
          <collector>
            <reference value="Practitioner/MarcMustermann"/>
          </collector>
          <collectedDateTime value="2023-12-01T17:00:17Z"/>
        </collection>
        <processing>
          <timePeriod>
            <start value="2023-12-01T17:00:17Z"/>
            <end value="2023-12-01T17:30:17Z"/>
          </timePeriod>
        </processing>
        <container>
          <identifier>
            <value value="4e88a-bc987-dd888-00001-bcoag"/>
          </identifier>
          <description value="S-Monovette grün"/>
          <type>
            <coding>
              <system value="http://snomed.info/sct"/>
              <code value="702120003"/>
              <display value="Blood collection Luer adaptor"/>
            </coding>
          </type>
          <additiveCodeableConcept>
            <coding>
              <system value="http://terminology.hl7.org/CodeSystem/v2-0371"/>
              <code value="C38"/>
              <display value="3.8% Citrate"/>
            </coding>
          </additiveCodeableConcept>
        </container>
      </Specimen>
    </resource>
  </entry>
  <entry>
    <fullUrl value="http://example.com/fhir/Specimen/Blood-1-tvt"/>
    <resource>
      <Specimen>
        <id value="Blood-1-tvt"/>
        <text>
          <status value="generated"/><div xmlns="http://www.w3.org/1999/xhtml"><a name="Specimen_Blood-1-tvt"> </a><p class="res-header-id"><b>Generated Narrative: Specimen Blood-1-tvt</b></p><a name="Blood-1-tvt"> </a><a name="hcBlood-1-tvt"> </a><a name="Blood-1-tvt-en-US"> </a><p><b>status</b>: Available</p><p><b>type</b>: <span title="Codes:{http://snomed.info/sct 119297000}">Blood sample</span></p><p><b>subject</b>: <a href="Patient-TobiasTimmermann.html">Tobias Timmermann  Male, DoB: 1984-01-01 ( urn:oid:2.16.756.5.30.1.123.100.1.1.1#80756011110123400003)</a></p><h3>Collections</h3><table class="grid"><tr><td style="display: none">-</td><td><b>Collector</b></td><td><b>Collected[x]</b></td><td><b>BodySite</b></td></tr><tr><td style="display: none">*</td><td><a href="Practitioner-MarcMustermann.html">Practitioner Marc Mustermann (official)</a></td><td>2015-08-16 06:40:17+0000</td><td><span title="Codes:{http://snomed.info/sct 721029009}">Structure of superficial vein of left upper limb (body structure)</span></td></tr></table><h3>Containers</h3><table class="grid"><tr><td style="display: none">-</td><td><b>Type</b></td></tr><tr><td style="display: none">*</td><td><span title="Codes:{http://snomed.info/sct 706053007}">General specimen container (physical object)</span></td></tr></table><p><b>note</b>: Specimen is grossly lipemic</p></div>
        </text>
        <status value="available"/>
        <type>
          <coding>
            <system value="http://snomed.info/sct"/>
            <code value="119297000"/>
            <display value="Blood sample"/>
          </coding>
        </type>
        <subject>
          <reference value="Patient/TobiasTimmermann"/>
        </subject>
        <collection>
          <collector>
            <reference value="Practitioner/MarcMustermann"/>
          </collector>
          <collectedDateTime value="2015-08-16T06:40:17Z"/>
          <bodySite>
            <coding>
              <system value="http://snomed.info/sct"/>
              <code value="721029009"/>
              <display value="Structure of superficial vein of left upper limb (body structure)"/>
            </coding>
          </bodySite>
        </collection>
        <container>
          <type>
            <coding>
              <system value="http://snomed.info/sct"/>
              <code value="706053007"/>
              <display value="General specimen container (physical object)"/>
            </coding>
          </type>
        </container>
        <note>
          <text value="Specimen is grossly lipemic"/>
        </note>
      </Specimen>
    </resource>
  </entry>
  <entry>
    <fullUrl value="http://example.com/fhir/ServiceRequest/1-tvt-ServiceRequest-0"/>
    <resource>
      <ServiceRequest>
        <id value="1-tvt-ServiceRequest-0"/>
        <meta>
          <profile value="http://fhir.ch/ig/ch-lab-order/StructureDefinition/ch-lab-order-SR"/>
        </meta>
        <text>
          <status value="generated"/><div xmlns="http://www.w3.org/1999/xhtml"><a name="ServiceRequest_1-tvt-ServiceRequest-0"> </a><p class="res-header-id"><b>Generated Narrative: ServiceRequest 1-tvt-ServiceRequest-0</b></p><a name="1-tvt-ServiceRequest-0"> </a><a name="hc1-tvt-ServiceRequest-0"> </a><a name="1-tvt-ServiceRequest-0-en-US"> </a><div style="display: inline-block; background-color: #d9e0e7; padding: 6px; margin: 4px; border: 1px solid #8da1b4; border-radius: 5px; line-height: 60%"><p style="margin-bottom: 0px"/><p style="margin-bottom: 0px">Profile: <a href="StructureDefinition-ch-lab-order-SR.html">CH LAB-Order-SR</a></p></div><p><b>identifier</b>: Placer Identifier/Y274589</p><p><b>status</b>: Active</p><p><b>intent</b>: Original Order</p><p><b>priority</b>: Urgent</p><p><b>subject</b>: <a href="Patient-TobiasTimmermann.html">Tobias Timmermann  Male, DoB: 1984-01-01 ( urn:oid:2.16.756.5.30.1.123.100.1.1.1#80756011110123400003)</a></p><p><b>requester</b>: <a href="PractitionerRole-MarcMustermannGruppenpraxis.html">PractitionerRole</a></p><p><b>reasonCode</b>: <span title="Codes:{http://snomed.info/sct 404223003}">Deep venous thrombosis of lower extremity (disorder)</span></p><p><b>insurance</b>: <a href="Coverage-HealthInsuranceCardTobiasTimmermann.html">Coverage: identifier = Insurance Card Number; status = active; type = Krankenversicherung (obligat.); period = (?) --&gt; 2024-12-31</a></p></div>
        </text>
        <identifier>
          <type>
            <coding>
              <system value="http://terminology.hl7.org/CodeSystem/v2-0203"/>
              <code value="PLAC"/>
              <display value="Placer Identifier"/>
            </coding>
          </type>
          <system value="urn:oid:2.16.756.5.30.1.123.100.2.1.1"/>
          <value value="Y274589"/>
        </identifier>
        <status value="active"/>
        <intent value="original-order"/>
        <priority value="urgent"/>
        <subject>
          <reference value="Patient/TobiasTimmermann"/>
        </subject>
        <requester>
          <reference value="PractitionerRole/MarcMustermannGruppenpraxis"/>
        </requester>
        <reasonCode>
          <coding>
            <system value="http://snomed.info/sct"/>
            <code value="404223003"/>
          </coding>
          <text value="Deep venous thrombosis of lower extremity (disorder)"/>
        </reasonCode>
        <insurance>
          <reference value="Coverage/HealthInsuranceCardTobiasTimmermann"/>
        </insurance>
      </ServiceRequest>
    </resource>
  </entry>
  <entry>
    <fullUrl value="http://example.com/fhir/ServiceRequest/1-tvt-ServiceRequest-1"/>
    <resource>
      <ServiceRequest>
        <id value="1-tvt-ServiceRequest-1"/>
        <meta>
          <profile value="http://fhir.ch/ig/ch-lab-order/StructureDefinition/ch-lab-order-SR"/>
        </meta>
        <text>
          <status value="generated"/><div xmlns="http://www.w3.org/1999/xhtml"><a name="ServiceRequest_1-tvt-ServiceRequest-1"> </a><p class="res-header-id"><b>Generated Narrative: ServiceRequest 1-tvt-ServiceRequest-1</b></p><a name="1-tvt-ServiceRequest-1"> </a><a name="hc1-tvt-ServiceRequest-1"> </a><a name="1-tvt-ServiceRequest-1-en-US"> </a><div style="display: inline-block; background-color: #d9e0e7; padding: 6px; margin: 4px; border: 1px solid #8da1b4; border-radius: 5px; line-height: 60%"><p style="margin-bottom: 0px"/><p style="margin-bottom: 0px">Profile: <a href="StructureDefinition-ch-lab-order-SR.html">CH LAB-Order-SR</a></p></div><p><b>identifier</b>: Placer Identifier/Y274589</p><p><b>basedOn</b>: <a href="ServiceRequest-1-tvt-ServiceRequest-0.html">ServiceRequest: identifier = Placer Identifier: Y274589; status = active; intent = original-order; priority = urgent; reasonCode = Deep venous thrombosis of lower extremity (disorder)</a></p><p><b>status</b>: Active</p><p><b>intent</b>: Original Order</p><p><b>priority</b>: Urgent</p><p><b>code</b>: <span title="Codes:{http://loinc.org 58410-2}">CBC panel - Blood by Automated count</span></p><p><b>subject</b>: <a href="Patient-TobiasTimmermann.html">Tobias Timmermann  Male, DoB: 1984-01-01 ( urn:oid:2.16.756.5.30.1.123.100.1.1.1#80756011110123400003)</a></p><p><b>requester</b>: <a href="PractitionerRole-MarcMustermannGruppenpraxis.html">PractitionerRole</a></p><p><b>reasonCode</b>: <span title="Codes:{http://snomed.info/sct 404223003}">Deep venous thrombosis of lower extremity (disorder)</span></p><p><b>insurance</b>: <a href="Coverage-HealthInsuranceCardTobiasTimmermann.html">Coverage: identifier = Insurance Card Number; status = active; type = Krankenversicherung (obligat.); period = (?) --&gt; 2024-12-31</a></p><p><b>specimen</b>: <a href="Specimen-Blood-1-tvt.html">Specimen: status = available; type = Blood sample; note = Specimen is grossly lipemic</a></p></div>
        </text>
        <identifier>
          <type>
            <coding>
              <system value="http://terminology.hl7.org/CodeSystem/v2-0203"/>
              <code value="PLAC"/>
              <display value="Placer Identifier"/>
            </coding>
          </type>
          <system value="urn:oid:2.16.756.5.30.1.123.100.2.1.1"/>
          <value value="Y274589"/>
        </identifier>
        <basedOn>
          <reference value="ServiceRequest/1-tvt-ServiceRequest-0"/>
        </basedOn>
        <status value="active"/>
        <intent value="original-order"/>
        <priority value="urgent"/>
        <code>
          <coding>
            <system value="http://loinc.org"/>
            <code value="58410-2"/>
            <display value="CBC panel - Blood by Automated count"/>
          </coding>
        </code>
        <subject>
          <reference value="Patient/TobiasTimmermann"/>
        </subject>
        <requester>
          <reference value="PractitionerRole/MarcMustermannGruppenpraxis"/>
        </requester>
        <reasonCode>
          <coding>
            <system value="http://snomed.info/sct"/>
            <code value="404223003"/>
          </coding>
          <text value="Deep venous thrombosis of lower extremity (disorder)"/>
        </reasonCode>
        <insurance>
          <reference value="Coverage/HealthInsuranceCardTobiasTimmermann"/>
        </insurance>
        <specimen>
          <reference value="Specimen/Blood-1-tvt"/>
        </specimen>
      </ServiceRequest>
    </resource>
  </entry>
  <entry>
    <fullUrl value="http://example.com/fhir/ServiceRequest/1-tvt-ServiceRequest-2"/>
    <resource>
      <ServiceRequest>
        <id value="1-tvt-ServiceRequest-2"/>
        <meta>
          <profile value="http://fhir.ch/ig/ch-lab-order/StructureDefinition/ch-lab-order-SR"/>
        </meta>
        <text>
          <status value="generated"/><div xmlns="http://www.w3.org/1999/xhtml"><a name="ServiceRequest_1-tvt-ServiceRequest-2"> </a><p class="res-header-id"><b>Generated Narrative: ServiceRequest 1-tvt-ServiceRequest-2</b></p><a name="1-tvt-ServiceRequest-2"> </a><a name="hc1-tvt-ServiceRequest-2"> </a><a name="1-tvt-ServiceRequest-2-en-US"> </a><div style="display: inline-block; background-color: #d9e0e7; padding: 6px; margin: 4px; border: 1px solid #8da1b4; border-radius: 5px; line-height: 60%"><p style="margin-bottom: 0px"/><p style="margin-bottom: 0px">Profile: <a href="StructureDefinition-ch-lab-order-SR.html">CH LAB-Order-SR</a></p></div><p><b>identifier</b>: Placer Identifier/Y274589</p><p><b>basedOn</b>: <a href="ServiceRequest-1-tvt-ServiceRequest-0.html">ServiceRequest: identifier = Placer Identifier: Y274589; status = active; intent = original-order; priority = urgent; reasonCode = Deep venous thrombosis of lower extremity (disorder)</a></p><p><b>status</b>: Active</p><p><b>intent</b>: Original Order</p><p><b>priority</b>: Urgent</p><p><b>code</b>: <span title="Codes:{http://loinc.org 57021-8}">CBC W Auto Differential panel - Blood</span></p><p><b>subject</b>: <a href="Patient-TobiasTimmermann.html">Tobias Timmermann  Male, DoB: 1984-01-01 ( urn:oid:2.16.756.5.30.1.123.100.1.1.1#80756011110123400003)</a></p><p><b>requester</b>: <a href="PractitionerRole-MarcMustermannGruppenpraxis.html">PractitionerRole</a></p><p><b>reasonCode</b>: <span title="Codes:{http://snomed.info/sct 404223003}">Deep venous thrombosis of lower extremity (disorder)</span></p><p><b>insurance</b>: <a href="Coverage-HealthInsuranceCardTobiasTimmermann.html">Coverage: identifier = Insurance Card Number; status = active; type = Krankenversicherung (obligat.); period = (?) --&gt; 2024-12-31</a></p><p><b>specimen</b>: <a href="Specimen-Blood-1-tvt.html">Specimen: status = available; type = Blood sample; note = Specimen is grossly lipemic</a></p></div>
        </text>
        <identifier>
          <type>
            <coding>
              <system value="http://terminology.hl7.org/CodeSystem/v2-0203"/>
              <code value="PLAC"/>
              <display value="Placer Identifier"/>
            </coding>
          </type>
          <system value="urn:oid:2.16.756.5.30.1.123.100.2.1.1"/>
          <value value="Y274589"/>
        </identifier>
        <basedOn>
          <reference value="ServiceRequest/1-tvt-ServiceRequest-0"/>
        </basedOn>
        <status value="active"/>
        <intent value="original-order"/>
        <priority value="urgent"/>
        <code>
          <coding>
            <system value="http://loinc.org"/>
            <code value="57021-8"/>
            <display value="CBC W Auto Differential panel - Blood"/>
          </coding>
        </code>
        <subject>
          <reference value="Patient/TobiasTimmermann"/>
        </subject>
        <requester>
          <reference value="PractitionerRole/MarcMustermannGruppenpraxis"/>
        </requester>
        <reasonCode>
          <coding>
            <system value="http://snomed.info/sct"/>
            <code value="404223003"/>
          </coding>
          <text value="Deep venous thrombosis of lower extremity (disorder)"/>
        </reasonCode>
        <insurance>
          <reference value="Coverage/HealthInsuranceCardTobiasTimmermann"/>
        </insurance>
        <specimen>
          <reference value="Specimen/Blood-1-tvt"/>
        </specimen>
      </ServiceRequest>
    </resource>
  </entry>
  <entry>
    <fullUrl value="http://example.com/fhir/ServiceRequest/1-tvt-ServiceRequest-3"/>
    <resource>
      <ServiceRequest>
        <id value="1-tvt-ServiceRequest-3"/>
        <meta>
          <profile value="http://fhir.ch/ig/ch-lab-order/StructureDefinition/ch-lab-order-SR"/>
        </meta>
        <text>
          <status value="generated"/><div xmlns="http://www.w3.org/1999/xhtml"><a name="ServiceRequest_1-tvt-ServiceRequest-3"> </a><p class="res-header-id"><b>Generated Narrative: ServiceRequest 1-tvt-ServiceRequest-3</b></p><a name="1-tvt-ServiceRequest-3"> </a><a name="hc1-tvt-ServiceRequest-3"> </a><a name="1-tvt-ServiceRequest-3-en-US"> </a><div style="display: inline-block; background-color: #d9e0e7; padding: 6px; margin: 4px; border: 1px solid #8da1b4; border-radius: 5px; line-height: 60%"><p style="margin-bottom: 0px"/><p style="margin-bottom: 0px">Profile: <a href="StructureDefinition-ch-lab-order-SR.html">CH LAB-Order-SR</a></p></div><p><b>identifier</b>: Placer Identifier/Y274589</p><p><b>basedOn</b>: <a href="ServiceRequest-1-tvt-ServiceRequest-0.html">ServiceRequest: identifier = Placer Identifier: Y274589; status = active; intent = original-order; priority = urgent; reasonCode = Deep venous thrombosis of lower extremity (disorder)</a></p><p><b>status</b>: Active</p><p><b>intent</b>: Original Order</p><p><b>priority</b>: Urgent</p><p><b>code</b>: <span title="Codes:{http://loinc.org 55398-2}">Short Fibrin D-dimer FEU and DDU panel - Platelet poor plasma</span></p><p><b>subject</b>: <a href="Patient-TobiasTimmermann.html">Tobias Timmermann  Male, DoB: 1984-01-01 ( urn:oid:2.16.756.5.30.1.123.100.1.1.1#80756011110123400003)</a></p><p><b>requester</b>: <a href="PractitionerRole-MarcMustermannGruppenpraxis.html">PractitionerRole</a></p><p><b>reasonCode</b>: <span title="Codes:{http://snomed.info/sct 404223003}">Deep venous thrombosis of lower extremity (disorder)</span></p><p><b>insurance</b>: <a href="Coverage-HealthInsuranceCardTobiasTimmermann.html">Coverage: identifier = Insurance Card Number; status = active; type = Krankenversicherung (obligat.); period = (?) --&gt; 2024-12-31</a></p><p><b>specimen</b>: <a href="Specimen-Blood-coag-1-tvt.html">Specimen: identifier = 48736-55555-75465; accessionIdentifier = 4e88a-66666-dd888; status = available; type = Blood sample; receivedTime = 2023-12-01 16:40:17+0000</a></p></div>
        </text>
        <identifier>
          <type>
            <coding>
              <system value="http://terminology.hl7.org/CodeSystem/v2-0203"/>
              <code value="PLAC"/>
              <display value="Placer Identifier"/>
            </coding>
          </type>
          <system value="urn:oid:2.16.756.5.30.1.123.100.2.1.1"/>
          <value value="Y274589"/>
        </identifier>
        <basedOn>
          <reference value="ServiceRequest/1-tvt-ServiceRequest-0"/>
        </basedOn>
        <status value="active"/>
        <intent value="original-order"/>
        <priority value="urgent"/>
        <code>
          <coding>
            <system value="http://loinc.org"/>
            <code value="55398-2"/>
            <display value="Short Fibrin D-dimer FEU and DDU panel - Platelet poor plasma"/>
          </coding>
        </code>
        <subject>
          <reference value="Patient/TobiasTimmermann"/>
        </subject>
        <requester>
          <reference value="PractitionerRole/MarcMustermannGruppenpraxis"/>
        </requester>
        <reasonCode>
          <coding>
            <system value="http://snomed.info/sct"/>
            <code value="404223003"/>
          </coding>
          <text value="Deep venous thrombosis of lower extremity (disorder)"/>
        </reasonCode>
        <insurance>
          <reference value="Coverage/HealthInsuranceCardTobiasTimmermann"/>
        </insurance>
        <specimen>
          <reference value="Specimen/Blood-coag-1-tvt"/>
        </specimen>
      </ServiceRequest>
    </resource>
  </entry>
  <entry>
    <fullUrl value="http://example.com/fhir/ServiceRequest/1-tvt-ServiceRequest-4"/>
    <resource>
      <ServiceRequest>
        <id value="1-tvt-ServiceRequest-4"/>
        <meta>
          <profile value="http://fhir.ch/ig/ch-lab-order/StructureDefinition/ch-lab-order-SR"/>
        </meta>
        <text>
          <status value="generated"/><div xmlns="http://www.w3.org/1999/xhtml"><a name="ServiceRequest_1-tvt-ServiceRequest-4"> </a><p class="res-header-id"><b>Generated Narrative: ServiceRequest 1-tvt-ServiceRequest-4</b></p><a name="1-tvt-ServiceRequest-4"> </a><a name="hc1-tvt-ServiceRequest-4"> </a><a name="1-tvt-ServiceRequest-4-en-US"> </a><div style="display: inline-block; background-color: #d9e0e7; padding: 6px; margin: 4px; border: 1px solid #8da1b4; border-radius: 5px; line-height: 60%"><p style="margin-bottom: 0px"/><p style="margin-bottom: 0px">Profile: <a href="StructureDefinition-ch-lab-order-SR.html">CH LAB-Order-SR</a></p></div><p><b>identifier</b>: Placer Identifier/Y274589</p><p><b>basedOn</b>: <a href="ServiceRequest-1-tvt-ServiceRequest-0.html">ServiceRequest: identifier = Placer Identifier: Y274589; status = active; intent = original-order; priority = urgent; reasonCode = Deep venous thrombosis of lower extremity (disorder)</a></p><p><b>status</b>: Active</p><p><b>intent</b>: Original Order</p><p><b>priority</b>: Urgent</p><p><b>code</b>: <span title="Codes:{http://loinc.org 1988-5}">C reactive protein [Mass/Volume] in Serum or Plasma</span></p><p><b>subject</b>: <a href="Patient-TobiasTimmermann.html">Tobias Timmermann  Male, DoB: 1984-01-01 ( urn:oid:2.16.756.5.30.1.123.100.1.1.1#80756011110123400003)</a></p><p><b>requester</b>: <a href="PractitionerRole-MarcMustermannGruppenpraxis.html">PractitionerRole</a></p><p><b>reasonCode</b>: <span title="Codes:{http://snomed.info/sct 404223003}">Deep venous thrombosis of lower extremity (disorder)</span></p><p><b>insurance</b>: <a href="Coverage-HealthInsuranceCardTobiasTimmermann.html">Coverage: identifier = Insurance Card Number; status = active; type = Krankenversicherung (obligat.); period = (?) --&gt; 2024-12-31</a></p><p><b>specimen</b>: <a href="Specimen-Serum-1-tvt.html">Serum specimen</a></p></div>
        </text>
        <identifier>
          <type>
            <coding>
              <system value="http://terminology.hl7.org/CodeSystem/v2-0203"/>
              <code value="PLAC"/>
              <display value="Placer Identifier"/>
            </coding>
          </type>
          <system value="urn:oid:2.16.756.5.30.1.123.100.2.1.1"/>
          <value value="Y274589"/>
        </identifier>
        <basedOn>
          <reference value="ServiceRequest/1-tvt-ServiceRequest-0"/>
        </basedOn>
        <status value="active"/>
        <intent value="original-order"/>
        <priority value="urgent"/>
        <code>
          <coding>
            <system value="http://loinc.org"/>
            <code value="1988-5"/>
            <display value="C reactive protein [Mass/Volume] in Serum or Plasma"/>
          </coding>
        </code>
        <subject>
          <reference value="Patient/TobiasTimmermann"/>
        </subject>
        <requester>
          <reference value="PractitionerRole/MarcMustermannGruppenpraxis"/>
        </requester>
        <reasonCode>
          <coding>
            <system value="http://snomed.info/sct"/>
            <code value="404223003"/>
          </coding>
          <text value="Deep venous thrombosis of lower extremity (disorder)"/>
        </reasonCode>
        <insurance>
          <reference value="Coverage/HealthInsuranceCardTobiasTimmermann"/>
        </insurance>
        <specimen>
          <reference value="Specimen/Serum-1-tvt"/>
          <display value="Serum specimen"/>
        </specimen>
      </ServiceRequest>
    </resource>
  </entry>
  <entry>
    <fullUrl value="http://example.com/fhir/ServiceRequest/1-tvt-ServiceRequest-5"/>
    <resource>
      <ServiceRequest>
        <id value="1-tvt-ServiceRequest-5"/>
        <meta>
          <profile value="http://fhir.ch/ig/ch-lab-order/StructureDefinition/ch-lab-order-SR"/>
        </meta>
        <text>
          <status value="generated"/><div xmlns="http://www.w3.org/1999/xhtml"><a name="ServiceRequest_1-tvt-ServiceRequest-5"> </a><p class="res-header-id"><b>Generated Narrative: ServiceRequest 1-tvt-ServiceRequest-5</b></p><a name="1-tvt-ServiceRequest-5"> </a><a name="hc1-tvt-ServiceRequest-5"> </a><a name="1-tvt-ServiceRequest-5-en-US"> </a><div style="display: inline-block; background-color: #d9e0e7; padding: 6px; margin: 4px; border: 1px solid #8da1b4; border-radius: 5px; line-height: 60%"><p style="margin-bottom: 0px"/><p style="margin-bottom: 0px">Profile: <a href="StructureDefinition-ch-lab-order-SR.html">CH LAB-Order-SR</a></p></div><p><b>identifier</b>: Placer Identifier/Y274589</p><p><b>basedOn</b>: <a href="ServiceRequest-1-tvt-ServiceRequest-0.html">ServiceRequest: identifier = Placer Identifier: Y274589; status = active; intent = original-order; priority = urgent; reasonCode = Deep venous thrombosis of lower extremity (disorder)</a></p><p><b>status</b>: Active</p><p><b>intent</b>: Original Order</p><p><b>priority</b>: Urgent</p><p><b>code</b>: <span title="Codes:{http://loinc.org 62292-8}">25-Hydroxyvitamin D3+25-Hydroxyvitamin D2 [Mass/volume] in Serum or Plasma</span></p><p><b>subject</b>: <a href="Patient-TobiasTimmermann.html">Tobias Timmermann  Male, DoB: 1984-01-01 ( urn:oid:2.16.756.5.30.1.123.100.1.1.1#80756011110123400003)</a></p><p><b>requester</b>: <a href="PractitionerRole-MarcMustermannGruppenpraxis.html">PractitionerRole</a></p><p><b>reasonCode</b>: <span title="Codes:{http://snomed.info/sct 723190009}">Limitation of Vit. D Lab Analyse</span></p><p><b>reasonReference</b>: <a href="Condition-ConditionRenalInsufficiency.html">Condition Chronic renal insufficiency (disorder)</a></p><p><b>insurance</b>: <a href="Coverage-HealthInsuranceCardTobiasTimmermann.html">Coverage: identifier = Insurance Card Number; status = active; type = Krankenversicherung (obligat.); period = (?) --&gt; 2024-12-31</a></p><p><b>supportingInfo</b>: <a href="Condition-ConditionRenalInsufficiency.html">Condition Chronic renal insufficiency (disorder)</a></p><p><b>specimen</b>: <a href="Specimen-Serum-1-tvt.html">Serum specimen</a></p></div>
        </text>
        <identifier>
          <type>
            <coding>
              <system value="http://terminology.hl7.org/CodeSystem/v2-0203"/>
              <code value="PLAC"/>
              <display value="Placer Identifier"/>
            </coding>
          </type>
          <system value="urn:oid:2.16.756.5.30.1.123.100.2.1.1"/>
          <value value="Y274589"/>
        </identifier>
        <basedOn>
          <reference value="ServiceRequest/1-tvt-ServiceRequest-0"/>
        </basedOn>
        <status value="active"/>
        <intent value="original-order"/>
        <priority value="urgent"/>
        <code>
          <coding>
            <system value="http://loinc.org"/>
            <code value="62292-8"/>
            <display value="25-Hydroxyvitamin D3+25-Hydroxyvitamin D2 [Mass/volume] in Serum or Plasma"/>
          </coding>
        </code>
        <subject>
          <reference value="Patient/TobiasTimmermann"/>
        </subject>
        <requester>
          <reference value="PractitionerRole/MarcMustermannGruppenpraxis"/>
        </requester>
        <reasonCode>
          <coding>
            <system value="http://snomed.info/sct"/>
            <code value="723190009"/>
            <display value="Chronic renal insufficiency (disorder)"/>
          </coding>
          <text value="Limitation of Vit. D Lab Analyse"/>
        </reasonCode>
        <reasonReference>
          <reference value="Condition/ConditionRenalInsufficiency"/>
        </reasonReference>
        <insurance>
          <reference value="Coverage/HealthInsuranceCardTobiasTimmermann"/>
        </insurance>
        <supportingInfo>
          <reference value="Condition/ConditionRenalInsufficiency"/>
        </supportingInfo>
        <specimen>
          <reference value="Specimen/Serum-1-tvt"/>
          <display value="Serum specimen"/>
        </specimen>
      </ServiceRequest>
    </resource>
  </entry>
</Bundle>