<?xml version="1.0" encoding="UTF-8"?>

<Bundle xmlns="http://hl7.org/fhir">
  <id value="LabOrderDocument"/>
  <meta>
    <profile value="http://fhir.ch/ig/ch-lab-order/StructureDefinition/ch-lab-order-document-with-sr"/>
  </meta>
  <identifier>
    <system value="urn:ietf:rfc:3986"/>
    <value value="urn:uuid:bc4715e6-c46d-4794-a379-b809f24ef05d"/>
  </identifier>
  <type value="document"/>
  <timestamp value="2025-03-05T12:00:00Z"/>
  <entry>
    <fullUrl value="urn:uuid:1b7b58b1-b952-4190-a0e0-59b4936573a5"/>
    <resource>
      <Composition>
        <id value="1b7b58b1-b952-4190-a0e0-59b4936573a5"/>
        <meta>
          <versionId value="1"/>
          <lastUpdated value="2022-10-20T17:04:38.520+00:00"/>
          <profile value="http://fhir.ch/ig/ch-lab-order/StructureDefinition/ch-lab-order-composition-with-sr"/>
        </meta>
        <text>
          <status value="additional"/><div xmlns="http://www.w3.org/1999/xhtml"><div>Case study Chronic Renal Insufficiency</div><div><h3>Order for Renal Insufficiency Panel</h3><p>Urs Schmid suffers from a chronic renal insufficiency. His doctor wants to determine the stage for further action.</p></div></div>
        </text>
        <extension url="http://fhir.ch/ig/ch-core/StructureDefinition/ch-ext-epr-dataenterer">
          <extension url="enterer">
            <valueReference>
              <reference value="urn:uuid:1301bc1f-9d23-4529-b30d-f1a0e792823c"/>
            </valueReference>
          </extension>
        </extension>
        <extension url="http://fhir.ch/ig/ch-orf/StructureDefinition/ch-orf-urgentnoficationcontactfortheresponsetothisdocument">
          <valueReference>
            <reference value="urn:uuid:1301bc1f-9d23-4529-b30d-f1a0e792823c"/>
          </valueReference>
        </extension>
        <extension url="http://fhir.ch/ig/ch-orf/StructureDefinition/ch-orf-copyreceiver">
          <valueReference>
            <reference value="urn:uuid:b82ca08b-9476-44a7-9893-74adbe93ab54"/>
          </valueReference>
        </extension>
        <status value="final"/>
        <type>
          <coding>
            <system value="http://snomed.info/sct"/>
            <code value="721965002"/>
            <display value="Laboratory order (record artifact)"/>
          </coding>
        </type>
        <category>
          <coding>
            <system value="http://snomed.info/sct"/>
            <code value="721963009"/>
            <display value="Order (record artifact)"/>
          </coding>
        </category>
        <subject>
          <reference value="urn:uuid:b82ca08b-9476-44a7-9893-74adbe93ab54"/>
        </subject>
        <date value="2025-03-05T12:00:00Z"/>
        <author>
          <reference value="urn:uuid:1301bc1f-9d23-4529-b30d-f1a0e792823c"/>
        </author>
        <title value="CH LAB-Order Renal Insufficiency Panel Document"/>
        <section>
          <title value="Laboratory Order by Service Request for Renal Insufficiency Panel"/>
          <code>
            <coding>
              <system value="http://snomed.info/sct"/>
              <code value="721963009"/>
              <display value="Order (record artifact)"/>
            </coding>
          </code>
          <text>
            <status value="generated"/><div xmlns="http://www.w3.org/1999/xhtml">Laboratory Order: Composition containing the needed Service Requests, estimated GFR and Albumin/Creatinine Ratio</div>
          </text>
          <entry>
            <reference value="urn:uuid:248f80c7-3d8c-4aa1-8eb6-53bcbb6c9bec"/>
          </entry>
          <entry>
            <reference value="urn:uuid:9ed971bb-247d-446a-80fb-f6aa7eaf374b"/>
          </entry>
          <entry>
            <reference value="urn:uuid:87c6a2f7-981d-469e-a5f5-e5ecf6286207"/>
          </entry>
          <entry>
            <reference value="urn:uuid:62dd8013-6145-4bbb-8588-b172caaa13af"/>
          </entry>
          <entry>
            <reference value="urn:uuid:d1be525d-a58c-410e-9dfb-aef46ce6f0fa"/>
          </entry>
          <entry>
            <reference value="urn:uuid:5d616c75-34c9-47f0-8e15-2df623755c41"/>
          </entry>
        </section>
      </Composition>
    </resource>
  </entry>
  <entry>
    <fullUrl value="urn:uuid:b82ca08b-9476-44a7-9893-74adbe93ab54"/>
    <resource>
      <Patient>
        <id value="UrsSchmid"/>
        <meta>
          <profile value="http://fhir.ch/ig/ch-core/StructureDefinition/ch-core-patient"/>
        </meta>
        <text>
          <status value="additional"/><div xmlns="http://www.w3.org/1999/xhtml"><p><b>id</b>: Urs Schmid</p><p><b>meta</b>:</p><p><b>identifier</b>: 012/08.111111</p><p><b>name</b>: Urs Schmid</p><p><b>gender</b>: MALE</p><p><b>birthDate</b>: Jan 01, 1981</p><p><b>maritalStatus</b>: unverheiratet <span style="background: LightGoldenRodYellow">(Details : {$ech-11-maritalstatus code '5' = '5', given as 'unverheiratet'})</span></p><h3>Communications</h3><table class="grid"><tr><td>-</td><td><b>Language</b></td><td><b>Preferred</b></td></tr><tr><td>*</td><td>Deutsch (Schweiz) <span style="background: LightGoldenRodYellow">(Details : {urn:ietf:bcp:47 code 'de-CH' = 'German (Region=Schweiz))</span></td><td>true</td></tr></table></div>
        </text>
        <extension url="http://hl7.org/fhir/StructureDefinition/patient-birthPlace">
          <valueAddress>
            <city value="Zürich"/>
            <country value="Schweiz"/>
          </valueAddress>
        </extension>
        <extension url="http://fhir.ch/ig/ch-core/StructureDefinition/ch-core-patient-ech-11-placeoforigin">
          <valueAddress>
            <city value="Breitenbach"/>
            <state value="BL"/>
          </valueAddress>
        </extension>
        <extension url="http://hl7.org/fhir/StructureDefinition/patient-religion">
          <valueCodeableConcept>
            <coding>
              <system value="http://terminology.hl7.org/CodeSystem/v3-ReligiousAffiliation"/>
              <code value="1007"/>
              <display value="Atheism"/>
            </coding>
          </valueCodeableConcept>
        </extension>
        <identifier>
          <type>
            <coding>
              <system value="http://terminology.hl7.org/CodeSystem/v2-0203"/>
              <code value="MR"/>
            </coding>
          </type>
          <system value="urn:oid:2.16.756.5.30.999999.1"/>
          <value value="012/08.111111"/>
        </identifier>
        <name>
          <family value="Guggindieluft"/>
          <given value="Hans"/>
        </name>
        <telecom>
          <system value="phone"/>
          <value value="079 979 79 79"/>
          <use value="home"/>
        </telecom>
        <telecom>
          <system value="email"/>
          <value value="urs.schmid@example.ch"/>
        </telecom>
        <gender value="male"/>
        <birthDate value="1981-01-01"/>
        <maritalStatus>
          <coding>
            <system value="http://fhir.ch/ig/ch-core/CodeSystem/ech-11-maritalstatus"/>
            <code value="5"/>
            <display value="unverheiratet"/>
          </coding>
        </maritalStatus>
        <communication>
          <language>
            <coding>
              <system value="urn:ietf:bcp:47"/>
              <code value="de-CH"/>
            </coding>
            <text value="Deutsch (Schweiz)"/>
          </language>
          <preferred value="true"/>
        </communication>
      </Patient>
    </resource>
  </entry>
  <entry>
    <fullUrl value="urn:uuid:d6917aad-86bd-4bb6-af13-795372344206"/>
    <resource>
      <Practitioner>
        <id value="EstherMeier"/>
        <meta>
          <profile value="http://fhir.ch/ig/ch-core/StructureDefinition/ch-core-practitioner"/>
        </meta>
        <text>
          <status value="generated"/><div xmlns="http://www.w3.org/1999/xhtml"><a name="Practitioner_EstherMeier"> </a><p class="res-header-id"><b>Generated Narrative: Practitioner EstherMeier</b></p><a name="EstherMeier"> </a><a name="hcEstherMeier"> </a><a name="EstherMeier-en-US"> </a><div style="display: inline-block; background-color: #d9e0e7; padding: 6px; margin: 4px; border: 1px solid #8da1b4; border-radius: 5px; line-height: 60%"><p style="margin-bottom: 0px"/><p style="margin-bottom: 0px">Profile: <a href="http://fhir.ch/ig/ch-core/6.0.0-ballot/StructureDefinition-ch-core-practitioner.html">CH Core Practitioner</a></p></div><p><b>identifier</b>: <a href="https://www.gs1.org/standards/id-keys/gln" title="Global Location Number">GLN</a>/7601000050700, <code>urn:oid:2.16.756.5.30.1.123.100.2.1.1</code>/L248519</p><p><b>name</b>: Esther Meier (Official)</p><p><b>telecom</b>: ph: 033 444 22 11(Work), <a href="mailto:esther.meier@gruppenpraxisolten.ch">esther.meier@gruppenpraxisolten.ch</a></p></div>
        </text>
        <identifier>
          <system value="urn:oid:2.51.1.3"/>
          <value value="7601000050700"/>
        </identifier>
        <identifier>
          <system value="urn:oid:2.16.756.5.30.1.123.100.2.1.1"/>
          <value value="L248519"/>
        </identifier>
        <name>
          <use value="official"/>
          <family value="Meier"/>
          <given value="Esther"/>
          <prefix value="Dr. med.">
            <extension url="http://hl7.org/fhir/StructureDefinition/iso21090-EN-qualifier">
              <valueCode value="AC"/>
            </extension>
          </prefix>
        </name>
        <telecom>
          <system value="phone"/>
          <value value="033 444 22 11"/>
          <use value="work"/>
        </telecom>
        <telecom>
          <system value="email"/>
          <value value="esther.meier@gruppenpraxisolten.ch"/>
          <use value="work"/>
        </telecom>
      </Practitioner>
    </resource>
  </entry>
  <entry>
    <fullUrl value="urn:uuid:1301bc1f-9d23-4529-b30d-f1a0e792823c"/>
    <resource>
      <PractitionerRole>
        <id value="EstherMeierGruppenpraxisOlten"/>
        <meta>
          <profile value="http://fhir.ch/ig/ch-core/StructureDefinition/ch-core-practitionerrole"/>
        </meta>
        <text>
          <status value="generated"/><div xmlns="http://www.w3.org/1999/xhtml"><a name="PractitionerRole_EstherMeierGruppenpraxisOlten"> </a><p class="res-header-id"><b>Generated Narrative: PractitionerRole EstherMeierGruppenpraxisOlten</b></p><a name="EstherMeierGruppenpraxisOlten"> </a><a name="hcEstherMeierGruppenpraxisOlten"> </a><a name="EstherMeierGruppenpraxisOlten-en-US"> </a><div style="display: inline-block; background-color: #d9e0e7; padding: 6px; margin: 4px; border: 1px solid #8da1b4; border-radius: 5px; line-height: 60%"><p style="margin-bottom: 0px"/><p style="margin-bottom: 0px">Profile: <a href="http://fhir.ch/ig/ch-core/6.0.0-ballot/StructureDefinition-ch-core-practitionerrole.html">CH Core PractitionerRole</a></p></div><p><b>practitioner</b>: <a href="Bundle-LabOrderDocument.html#urn-uuid-d6917aad-86bd-4bb6-af13-795372344206">Bundle: identifier = UUID:bc4715e6-c46d-4794-a379-b809f24ef05d; type = document; timestamp = 2025-03-05 12:00:00+0000</a></p><p><b>organization</b>: <a href="Bundle-LabOrderDocument.html#urn-uuid-9c8584fb-6a33-4ec9-bacd-489c5e1e6bb0">Bundle: identifier = UUID:bc4715e6-c46d-4794-a379-b809f24ef05d; type = document; timestamp = 2025-03-05 12:00:00+0000</a></p></div>
        </text>
        <practitioner>
          <reference value="urn:uuid:d6917aad-86bd-4bb6-af13-795372344206"/>
        </practitioner>
        <organization>
          <reference value="urn:uuid:9c8584fb-6a33-4ec9-bacd-489c5e1e6bb0"/>
        </organization>
      </PractitionerRole>
    </resource>
  </entry>
  <entry>
    <fullUrl value="urn:uuid:9c8584fb-6a33-4ec9-bacd-489c5e1e6bb0"/>
    <resource>
      <Organization>
        <id value="GruppenpraxisOlten"/>
        <meta>
          <profile value="http://fhir.ch/ig/ch-core/StructureDefinition/ch-core-organization-epr"/>
        </meta>
        <text>
          <status value="generated"/><div xmlns="http://www.w3.org/1999/xhtml"><a name="Organization_GruppenpraxisOlten"> </a><p class="res-header-id"><b>Generated Narrative: Organization GruppenpraxisOlten</b></p><a name="GruppenpraxisOlten"> </a><a name="hcGruppenpraxisOlten"> </a><a name="GruppenpraxisOlten-en-US"> </a><div style="display: inline-block; background-color: #d9e0e7; padding: 6px; margin: 4px; border: 1px solid #8da1b4; border-radius: 5px; line-height: 60%"><p style="margin-bottom: 0px"/><p style="margin-bottom: 0px">Profile: <a href="http://fhir.ch/ig/ch-core/6.0.0-ballot/StructureDefinition-ch-core-organization-epr.html">CH Core Organization EPR</a></p></div><p><b>identifier</b>: <a href="https://www.gs1.org/standards/id-keys/gln" title="Global Location Number">GLN</a>/7601000241115</p><p><b>name</b>: Gruppenpraxis Olten</p><p><b>telecom</b>: <a href="tel:+41555556677">+41555556677</a>, <a href="mailto:info@gruppenpraxisolten.ch">info@gruppenpraxisolten.ch</a>, <a href="http://www.gruppenpraxisolten.ch">http://www.gruppenpraxisolten.ch</a></p><p><b>address</b>: Gerbergasse 12 Olten 4600 CH </p></div>
        </text>
        <identifier>
          <system value="urn:oid:2.51.1.3"/>
          <value value="7601000241115"/>
        </identifier>
        <name value="Gruppenpraxis Olten"/>
        <telecom>
          <system value="phone"/>
          <value value="+41555556677"/>
          <use value="work"/>
        </telecom>
        <telecom>
          <system value="email"/>
          <value value="info@gruppenpraxisolten.ch"/>
          <use value="work"/>
        </telecom>
        <telecom>
          <system value="url"/>
          <value value="http://www.gruppenpraxisolten.ch"/>
          <use value="work"/>
        </telecom>
        <address>
          <line value="Gerbergasse 12"/>
          <city value="Olten"/>
          <postalCode value="4600"/>
          <country value="CH"/>
        </address>
      </Organization>
    </resource>
  </entry>
  <entry>
    <fullUrl value="urn:uuid:248f80c7-3d8c-4aa1-8eb6-53bcbb6c9bec"/>
    <resource>
      <ServiceRequest>
        <id value="ServiceRequestRenalInsufficiencyPanel"/>
        <meta>
          <profile value="http://fhir.ch/ig/ch-lab-order/StructureDefinition/ch-lab-order-SR"/>
        </meta>
        <text>
          <status value="generated"/><div xmlns="http://www.w3.org/1999/xhtml"><a name="ServiceRequest_ServiceRequestRenalInsufficiencyPanel"> </a><p class="res-header-id"><b>Generated Narrative: ServiceRequest ServiceRequestRenalInsufficiencyPanel</b></p><a name="ServiceRequestRenalInsufficiencyPanel"> </a><a name="hcServiceRequestRenalInsufficiencyPanel"> </a><a name="ServiceRequestRenalInsufficiencyPanel-en-US"> </a><div style="display: inline-block; background-color: #d9e0e7; padding: 6px; margin: 4px; border: 1px solid #8da1b4; border-radius: 5px; line-height: 60%"><p style="margin-bottom: 0px"/><p style="margin-bottom: 0px">Profile: <a href="StructureDefinition-ch-lab-order-SR.html">CH LAB-Order-SR</a></p></div><p><b>identifier</b>: Placer Identifier/Y274589</p><p><b>instantiatesCanonical</b>: <a href="PlanDefinition-LabServiceRenalInsufficiency.html">Renal Insufficiency Lab Panel</a></p><p><b>requisition</b>: Placer Identifier/ReqID-123456789</p><p><b>status</b>: Active</p><p><b>intent</b>: Original Order</p><p><b>priority</b>: Urgent</p><p><b>code</b>: <span title="Codes:{http://loinc.org LP31398-8}">Renal function</span></p><p><b>orderDetail</b>: <span title="Codes:{http://terminology.hl7.org/CodeSystem/v2-0119 NW}">Order Control code</span></p><p><b>subject</b>: <a href="Bundle-LabOrderDocument.html#urn-uuid-b82ca08b-9476-44a7-9893-74adbe93ab54">Bundle: identifier = UUID:bc4715e6-c46d-4794-a379-b809f24ef05d; type = document; timestamp = 2025-03-05 12:00:00+0000</a></p><p><b>requester</b>: <a href="Bundle-LabOrderDocument.html#urn-uuid-1301bc1f-9d23-4529-b30d-f1a0e792823c">Bundle: identifier = UUID:bc4715e6-c46d-4794-a379-b809f24ef05d; type = document; timestamp = 2025-03-05 12:00:00+0000</a></p><p><b>reasonCode</b>: <span title="Codes:{http://snomed.info/sct 90688005}">Chronic renal failure syndrome (disorder)</span></p></div>
        </text>
        <identifier>
          <type>
            <coding>
              <system value="http://terminology.hl7.org/CodeSystem/v2-0203"/>
              <code value="PLAC"/>
              <display value="Placer Identifier"/>
            </coding>
          </type>
          <system value="urn:oid:2.16.756.5.30.1.123.100.2.1.1"/>
          <value value="Y274589"/>
        </identifier>
        <instantiatesCanonical value="http://fhir.ch/ig/ch-lab-order/PlanDefinition/LabServiceRenalInsufficiency"/>
        <requisition>
          <type>
            <coding>
              <system value="http://terminology.hl7.org/CodeSystem/v2-0203"/>
              <code value="PLAC"/>
              <display value="Placer Identifier"/>
            </coding>
          </type>
          <system value="http://example.org/placer-system/req-nr"/>
          <value value="ReqID-123456789"/>
        </requisition>
        <status value="active"/>
        <intent value="original-order"/>
        <priority value="urgent"/>
        <code>
          <coding>
            <system value="http://loinc.org"/>
            <code value="LP31398-8"/>
            <display value="Renal function"/>
          </coding>
        </code>
        <orderDetail>
          <coding>
            <system value="http://terminology.hl7.org/CodeSystem/v2-0119"/>
            <code value="NW"/>
            <display value="New order/service"/>
          </coding>
          <text value="Order Control code"/>
        </orderDetail>
        <subject>
          <reference value="urn:uuid:b82ca08b-9476-44a7-9893-74adbe93ab54"/>
        </subject>
        <requester>
          <reference value="urn:uuid:1301bc1f-9d23-4529-b30d-f1a0e792823c"/>
        </requester>
        <reasonCode>
          <coding>
            <system value="http://snomed.info/sct"/>
            <code value="90688005"/>
          </coding>
          <text value="Chronic renal failure syndrome (disorder)"/>
        </reasonCode>
      </ServiceRequest>
    </resource>
  </entry>
  <entry>
    <fullUrl value="urn:uuid:9ed971bb-247d-446a-80fb-f6aa7eaf374b"/>
    <resource>
      <ServiceRequest>
        <id value="ServiceRequest-eGFR"/>
        <meta>
          <profile value="http://fhir.ch/ig/ch-lab-order/StructureDefinition/ch-lab-order-SR"/>
        </meta>
        <text>
          <status value="generated"/><div xmlns="http://www.w3.org/1999/xhtml"><a name="ServiceRequest_ServiceRequest-eGFR"> </a><p class="res-header-id"><b>Generated Narrative: ServiceRequest ServiceRequest-eGFR</b></p><a name="ServiceRequest-eGFR"> </a><a name="hcServiceRequest-eGFR"> </a><a name="ServiceRequest-eGFR-en-US"> </a><div style="display: inline-block; background-color: #d9e0e7; padding: 6px; margin: 4px; border: 1px solid #8da1b4; border-radius: 5px; line-height: 60%"><p style="margin-bottom: 0px"/><p style="margin-bottom: 0px">Profile: <a href="StructureDefinition-ch-lab-order-SR.html">CH LAB-Order-SR</a></p></div><p><b>identifier</b>: Placer Identifier/Y274589</p><p><b>instantiatesCanonical</b>: <a href="PlanDefinition-LabService-eGFR.html">Renal Insufficiendy Panel: Service eGFR</a></p><p><b>basedOn</b>: <a href="Bundle-LabOrderDocument.html#urn-uuid-248f80c7-3d8c-4aa1-8eb6-53bcbb6c9bec">Bundle: identifier = UUID:bc4715e6-c46d-4794-a379-b809f24ef05d; type = document; timestamp = 2025-03-05 12:00:00+0000</a></p><p><b>requisition</b>: Placer Identifier/ReqID-123456789</p><p><b>status</b>: Active</p><p><b>intent</b>: Original Order</p><p><b>priority</b>: Urgent</p><p><b>code</b>: <span title="Codes:{http://loinc.org 98979-8}">Glomerular filtration rate [Volume Rate/Area] in Serum, Plasma or Blood by Creatinine-based formula (CKD-EPI 2021)/1.73 sq M</span></p><p><b>orderDetail</b>: <span title="Codes:{http://terminology.hl7.org/CodeSystem/v2-0119 NW}">Order Control code</span></p><p><b>subject</b>: <a href="Bundle-LabOrderDocument.html#urn-uuid-b82ca08b-9476-44a7-9893-74adbe93ab54">Bundle: identifier = UUID:bc4715e6-c46d-4794-a379-b809f24ef05d; type = document; timestamp = 2025-03-05 12:00:00+0000</a></p><p><b>requester</b>: <a href="Bundle-LabOrderDocument.html#urn-uuid-1301bc1f-9d23-4529-b30d-f1a0e792823c">Bundle: identifier = UUID:bc4715e6-c46d-4794-a379-b809f24ef05d; type = document; timestamp = 2025-03-05 12:00:00+0000</a></p><p><b>reasonCode</b>: <span title="Codes:{http://snomed.info/sct 90688005}">Chronic renal failure syndrome (disorder)</span></p><p><b>specimen</b>: <a href="Specimen-Serum.html">Serum specimen</a></p></div>
        </text>
        <identifier>
          <type>
            <coding>
              <system value="http://terminology.hl7.org/CodeSystem/v2-0203"/>
              <code value="PLAC"/>
              <display value="Placer Identifier"/>
            </coding>
          </type>
          <system value="urn:oid:2.16.756.5.30.1.123.100.2.1.1"/>
          <value value="Y274589"/>
        </identifier>
        <instantiatesCanonical value="http://fhir.ch/ig/ch-lab-order/PlanDefinition/LabService-eGFR"/>
        <basedOn>
          <reference value="urn:uuid:248f80c7-3d8c-4aa1-8eb6-53bcbb6c9bec"/>
        </basedOn>
        <requisition>
          <type>
            <coding>
              <system value="http://terminology.hl7.org/CodeSystem/v2-0203"/>
              <code value="PLAC"/>
              <display value="Placer Identifier"/>
            </coding>
          </type>
          <system value="http://example.org/placer-system/req-nr"/>
          <value value="ReqID-123456789"/>
        </requisition>
        <status value="active"/>
        <intent value="original-order"/>
        <priority value="urgent"/>
        <code>
          <coding>
            <system value="http://loinc.org"/>
            <code value="98979-8"/>
            <display value="Glomerular filtration rate [Volume Rate/Area] in Serum, Plasma or Blood by Creatinine-based formula (CKD-EPI 2021)/1.73 sq M"/>
          </coding>
        </code>
        <orderDetail>
          <coding>
            <system value="http://terminology.hl7.org/CodeSystem/v2-0119"/>
            <code value="NW"/>
            <display value="New order/service"/>
          </coding>
          <text value="Order Control code"/>
        </orderDetail>
        <subject>
          <reference value="urn:uuid:b82ca08b-9476-44a7-9893-74adbe93ab54"/>
        </subject>
        <requester>
          <reference value="urn:uuid:1301bc1f-9d23-4529-b30d-f1a0e792823c"/>
        </requester>
        <reasonCode>
          <coding>
            <system value="http://snomed.info/sct"/>
            <code value="90688005"/>
          </coding>
          <text value="Chronic renal failure syndrome (disorder)"/>
        </reasonCode>
        <specimen>
          <reference value="Specimen/Serum"/>
          <display value="Serum specimen"/>
        </specimen>
      </ServiceRequest>
    </resource>
  </entry>
  <entry>
    <fullUrl value="urn:uuid:87c6a2f7-981d-469e-a5f5-e5ecf6286207"/>
    <resource>
      <ServiceRequest>
        <id value="ServiceRequestCreatinineSerum-eGFR"/>
        <meta>
          <profile value="http://fhir.ch/ig/ch-lab-order/StructureDefinition/ch-lab-order-SR"/>
        </meta>
        <text>
          <status value="generated"/><div xmlns="http://www.w3.org/1999/xhtml"><a name="ServiceRequest_ServiceRequestCreatinineSerum-eGFR"> </a><p class="res-header-id"><b>Generated Narrative: ServiceRequest ServiceRequestCreatinineSerum-eGFR</b></p><a name="ServiceRequestCreatinineSerum-eGFR"> </a><a name="hcServiceRequestCreatinineSerum-eGFR"> </a><a name="ServiceRequestCreatinineSerum-eGFR-en-US"> </a><div style="display: inline-block; background-color: #d9e0e7; padding: 6px; margin: 4px; border: 1px solid #8da1b4; border-radius: 5px; line-height: 60%"><p style="margin-bottom: 0px"/><p style="margin-bottom: 0px">Profile: <a href="StructureDefinition-ch-lab-order-SR.html">CH LAB-Order-SR</a></p></div><p><b>identifier</b>: Placer Identifier/Y274589</p><p><b>instantiatesCanonical</b>: <code>http://fhir.ch/ig/ch-lab-order/PlanDefinition/LabServiceCreatinineSerum</code></p><p><b>basedOn</b>: <a href="Bundle-LabOrderDocument.html#urn-uuid-9ed971bb-247d-446a-80fb-f6aa7eaf374b">Bundle: identifier = UUID:bc4715e6-c46d-4794-a379-b809f24ef05d; type = document; timestamp = 2025-03-05 12:00:00+0000</a></p><p><b>requisition</b>: Placer Identifier/ReqID-123456789</p><p><b>status</b>: Active</p><p><b>intent</b>: Original Order</p><p><b>priority</b>: Urgent</p><p><b>code</b>: <span title="Codes:{http://loinc.org 14682-9}">Creatinine [Moles/volume] in Serum or Plasma</span></p><p><b>subject</b>: <a href="Bundle-LabOrderDocument.html#urn-uuid-b82ca08b-9476-44a7-9893-74adbe93ab54">Bundle: identifier = UUID:bc4715e6-c46d-4794-a379-b809f24ef05d; type = document; timestamp = 2025-03-05 12:00:00+0000</a></p><p><b>occurrence</b>: 2025-01-15</p><p><b>requester</b>: <a href="Bundle-LabOrderDocument.html#urn-uuid-1301bc1f-9d23-4529-b30d-f1a0e792823c">Bundle: identifier = UUID:bc4715e6-c46d-4794-a379-b809f24ef05d; type = document; timestamp = 2025-03-05 12:00:00+0000</a></p><p><b>reasonCode</b>: <span title="Codes:{http://snomed.info/sct 90688005}">Chronic renal failure syndrome (disorder)</span></p><p><b>supportingInfo</b>: </p><ul><li><a href="MedicationStatement-Diclofenac.html">MedicationStatement: status = active; medication[x] = -&gt;Medication Product containing only diclofenac (medicinal product); effective[x] = 2023-11-11; dateAsserted = 2023-11-11; note = Patient takes it every day in the morning back pain</a></li><li><a href="Condition-Renal-insufficiency.html">Condition Chronic renal insufficiency (disorder)</a></li></ul><p><b>specimen</b>: <a href="Specimen-Serum.html">Serum Sample</a></p></div>
        </text>
        <identifier>
          <type>
            <coding>
              <system value="http://terminology.hl7.org/CodeSystem/v2-0203"/>
              <code value="PLAC"/>
              <display value="Placer Identifier"/>
            </coding>
          </type>
          <system value="urn:oid:2.16.756.5.30.1.123.100.2.1.1"/>
          <value value="Y274589"/>
        </identifier>
        <instantiatesCanonical value="http://fhir.ch/ig/ch-lab-order/PlanDefinition/LabServiceCreatinineSerum"/>
        <basedOn>
          <reference value="urn:uuid:9ed971bb-247d-446a-80fb-f6aa7eaf374b"/>
        </basedOn>
        <requisition>
          <type>
            <coding>
              <system value="http://terminology.hl7.org/CodeSystem/v2-0203"/>
              <code value="PLAC"/>
              <display value="Placer Identifier"/>
            </coding>
          </type>
          <system value="http://example.org/placer-system/req-nr"/>
          <value value="ReqID-123456789"/>
        </requisition>
        <status value="active"/>
        <intent value="original-order"/>
        <priority value="urgent"/>
        <code>
          <coding>
            <system value="http://loinc.org"/>
            <code value="14682-9"/>
            <display value="Creatinine [Moles/volume] in Serum or Plasma"/>
          </coding>
        </code>
        <subject>
          <reference value="urn:uuid:b82ca08b-9476-44a7-9893-74adbe93ab54"/>
        </subject>
        <occurrenceDateTime value="2025-01-15"/>
        <requester>
          <reference value="urn:uuid:1301bc1f-9d23-4529-b30d-f1a0e792823c"/>
        </requester>
        <reasonCode>
          <coding>
            <system value="http://snomed.info/sct"/>
            <code value="90688005"/>
          </coding>
          <text value="Chronic renal failure syndrome (disorder)"/>
        </reasonCode>
        <supportingInfo>
          <reference value="MedicationStatement/Diclofenac"/>
        </supportingInfo>
        <supportingInfo>
          <reference value="Condition/Renal-insufficiency"/>
        </supportingInfo>
        <specimen>
          <reference value="Specimen/Serum"/>
          <display value="Serum Sample"/>
        </specimen>
      </ServiceRequest>
    </resource>
  </entry>
  <entry>
    <fullUrl value="urn:uuid:62dd8013-6145-4bbb-8588-b172caaa13af"/>
    <resource>
      <ServiceRequest>
        <id value="ServiceRequest-uACR"/>
        <meta>
          <profile value="http://fhir.ch/ig/ch-lab-order/StructureDefinition/ch-lab-order-SR"/>
        </meta>
        <text>
          <status value="generated"/><div xmlns="http://www.w3.org/1999/xhtml"><a name="ServiceRequest_ServiceRequest-uACR"> </a><p class="res-header-id"><b>Generated Narrative: ServiceRequest ServiceRequest-uACR</b></p><a name="ServiceRequest-uACR"> </a><a name="hcServiceRequest-uACR"> </a><a name="ServiceRequest-uACR-en-US"> </a><div style="display: inline-block; background-color: #d9e0e7; padding: 6px; margin: 4px; border: 1px solid #8da1b4; border-radius: 5px; line-height: 60%"><p style="margin-bottom: 0px"/><p style="margin-bottom: 0px">Profile: <a href="StructureDefinition-ch-lab-order-SR.html">CH LAB-Order-SR</a></p></div><p><b>identifier</b>: Placer Identifier/Y274589</p><p><b>instantiatesCanonical</b>: <a href="PlanDefinition-LabService-uACR.html">Renal Insufficiendy Panel uACR</a></p><p><b>basedOn</b>: <a href="Bundle-LabOrderDocument.html#urn-uuid-248f80c7-3d8c-4aa1-8eb6-53bcbb6c9bec">Bundle: identifier = UUID:bc4715e6-c46d-4794-a379-b809f24ef05d; type = document; timestamp = 2025-03-05 12:00:00+0000</a></p><p><b>requisition</b>: Placer Identifier/ReqID-123456789</p><p><b>status</b>: Active</p><p><b>intent</b>: Original Order</p><p><b>priority</b>: Urgent</p><p><b>code</b>: <span title="Codes:{http://loinc.org 14585-4}">Albumin/Creatinine [Molar Ratio] in Urine</span></p><p><b>orderDetail</b>: <span title="Codes:{http://terminology.hl7.org/CodeSystem/v2-0119 NW}">Order Control code</span></p><p><b>subject</b>: <a href="Bundle-LabOrderDocument.html#urn-uuid-b82ca08b-9476-44a7-9893-74adbe93ab54">Bundle: identifier = UUID:bc4715e6-c46d-4794-a379-b809f24ef05d; type = document; timestamp = 2025-03-05 12:00:00+0000</a></p><p><b>requester</b>: <a href="Bundle-LabOrderDocument.html#urn-uuid-1301bc1f-9d23-4529-b30d-f1a0e792823c">Bundle: identifier = UUID:bc4715e6-c46d-4794-a379-b809f24ef05d; type = document; timestamp = 2025-03-05 12:00:00+0000</a></p><p><b>reasonCode</b>: <span title="Codes:{http://snomed.info/sct 90688005}">Chronic renal failure syndrome (disorder)</span></p><p><b>supportingInfo</b>: </p><ul><li><a href="MedicationStatement-Diclofenac.html">MedicationStatement: status = active; medication[x] = -&gt;Medication Product containing only diclofenac (medicinal product); effective[x] = 2023-11-11; dateAsserted = 2023-11-11; note = Patient takes it every day in the morning back pain</a></li><li><a href="Condition-Renal-insufficiency.html">Condition Chronic renal insufficiency (disorder)</a></li></ul><p><b>specimen</b>: <a href="Specimen-Urine.html">Urine specimen</a></p></div>
        </text>
        <identifier>
          <type>
            <coding>
              <system value="http://terminology.hl7.org/CodeSystem/v2-0203"/>
              <code value="PLAC"/>
              <display value="Placer Identifier"/>
            </coding>
          </type>
          <system value="urn:oid:2.16.756.5.30.1.123.100.2.1.1"/>
          <value value="Y274589"/>
        </identifier>
        <instantiatesCanonical value="http://fhir.ch/ig/ch-lab-order/PlanDefinition/LabService-uACR"/>
        <basedOn>
          <reference value="urn:uuid:248f80c7-3d8c-4aa1-8eb6-53bcbb6c9bec"/>
        </basedOn>
        <requisition>
          <type>
            <coding>
              <system value="http://terminology.hl7.org/CodeSystem/v2-0203"/>
              <code value="PLAC"/>
              <display value="Placer Identifier"/>
            </coding>
          </type>
          <system value="http://example.org/placer-system/req-nr"/>
          <value value="ReqID-123456789"/>
        </requisition>
        <status value="active"/>
        <intent value="original-order"/>
        <priority value="urgent"/>
        <code>
          <coding>
            <system value="http://loinc.org"/>
            <code value="14585-4"/>
            <display value="Albumin/Creatinine [Molar Ratio] in Urine"/>
          </coding>
        </code>
        <orderDetail>
          <coding>
            <system value="http://terminology.hl7.org/CodeSystem/v2-0119"/>
            <code value="NW"/>
            <display value="New order/service"/>
          </coding>
          <text value="Order Control code"/>
        </orderDetail>
        <subject>
          <reference value="urn:uuid:b82ca08b-9476-44a7-9893-74adbe93ab54"/>
        </subject>
        <requester>
          <reference value="urn:uuid:1301bc1f-9d23-4529-b30d-f1a0e792823c"/>
        </requester>
        <reasonCode>
          <coding>
            <system value="http://snomed.info/sct"/>
            <code value="90688005"/>
          </coding>
          <text value="Chronic renal failure syndrome (disorder)"/>
        </reasonCode>
        <supportingInfo>
          <reference value="MedicationStatement/Diclofenac"/>
        </supportingInfo>
        <supportingInfo>
          <reference value="Condition/Renal-insufficiency"/>
        </supportingInfo>
        <specimen>
          <reference value="Specimen/Urine"/>
          <display value="Urine specimen"/>
        </specimen>
      </ServiceRequest>
    </resource>
  </entry>
  <entry>
    <fullUrl value="urn:uuid:d1be525d-a58c-410e-9dfb-aef46ce6f0fa"/>
    <resource>
      <ServiceRequest>
        <id value="ServiceRequestAlbuminUrine"/>
        <meta>
          <profile value="http://fhir.ch/ig/ch-lab-order/StructureDefinition/ch-lab-order-SR"/>
        </meta>
        <text>
          <status value="generated"/><div xmlns="http://www.w3.org/1999/xhtml"><a name="ServiceRequest_ServiceRequestAlbuminUrine"> </a><p class="res-header-id"><b>Generated Narrative: ServiceRequest ServiceRequestAlbuminUrine</b></p><a name="ServiceRequestAlbuminUrine"> </a><a name="hcServiceRequestAlbuminUrine"> </a><a name="ServiceRequestAlbuminUrine-en-US"> </a><div style="display: inline-block; background-color: #d9e0e7; padding: 6px; margin: 4px; border: 1px solid #8da1b4; border-radius: 5px; line-height: 60%"><p style="margin-bottom: 0px"/><p style="margin-bottom: 0px">Profile: <a href="StructureDefinition-ch-lab-order-SR.html">CH LAB-Order-SR</a></p></div><p><b>identifier</b>: Placer Identifier/Y274589</p><p><b>basedOn</b>: <a href="Bundle-LabOrderDocument.html#urn-uuid-62dd8013-6145-4bbb-8588-b172caaa13af">Bundle: identifier = UUID:bc4715e6-c46d-4794-a379-b809f24ef05d; type = document; timestamp = 2025-03-05 12:00:00+0000</a></p><p><b>requisition</b>: Placer Identifier/ReqID-123456789</p><p><b>status</b>: Active</p><p><b>intent</b>: Original Order</p><p><b>priority</b>: Urgent</p><p><b>code</b>: <span title="Codes:{http://loinc.org 77158-4}">Microalbumin [Moles/volume] in Urine by Detection limit &lt;= 3.0 mg/L</span></p><p><b>orderDetail</b>: <span title="Codes:{http://terminology.hl7.org/CodeSystem/v2-0119 NW}">Order Control code</span></p><p><b>subject</b>: <a href="Bundle-LabOrderDocument.html#urn-uuid-b82ca08b-9476-44a7-9893-74adbe93ab54">Bundle: identifier = UUID:bc4715e6-c46d-4794-a379-b809f24ef05d; type = document; timestamp = 2025-03-05 12:00:00+0000</a></p><p><b>requester</b>: <a href="Bundle-LabOrderDocument.html#urn-uuid-1301bc1f-9d23-4529-b30d-f1a0e792823c">Bundle: identifier = UUID:bc4715e6-c46d-4794-a379-b809f24ef05d; type = document; timestamp = 2025-03-05 12:00:00+0000</a></p><p><b>reasonCode</b>: <span title="Codes:{http://snomed.info/sct 90688005}">Chronic renal failure syndrome (disorder)</span></p><p><b>specimen</b>: <a href="Specimen-Urine.html">Urine specimen</a></p><p><b>note</b>: Please use umol/L as Unit for the ratio calculation umol[albumin]/mmol[creatinine].</p></div>
        </text>
        <identifier>
          <type>
            <coding>
              <system value="http://terminology.hl7.org/CodeSystem/v2-0203"/>
              <code value="PLAC"/>
              <display value="Placer Identifier"/>
            </coding>
          </type>
          <system value="urn:oid:2.16.756.5.30.1.123.100.2.1.1"/>
          <value value="Y274589"/>
        </identifier>
        <basedOn>
          <reference value="urn:uuid:62dd8013-6145-4bbb-8588-b172caaa13af"/>
        </basedOn>
        <requisition>
          <type>
            <coding>
              <system value="http://terminology.hl7.org/CodeSystem/v2-0203"/>
              <code value="PLAC"/>
              <display value="Placer Identifier"/>
            </coding>
          </type>
          <system value="http://example.org/placer-system/req-nr"/>
          <value value="ReqID-123456789"/>
        </requisition>
        <status value="active"/>
        <intent value="original-order"/>
        <priority value="urgent"/>
        <code>
          <coding>
            <system value="http://loinc.org"/>
            <code value="77158-4"/>
            <display value="Microalbumin [Moles/volume] in Urine by Detection limit &lt;= 3.0 mg/L"/>
          </coding>
        </code>
        <orderDetail>
          <coding>
            <system value="http://terminology.hl7.org/CodeSystem/v2-0119"/>
            <code value="NW"/>
            <display value="New order/service"/>
          </coding>
          <text value="Order Control code"/>
        </orderDetail>
        <subject>
          <reference value="urn:uuid:b82ca08b-9476-44a7-9893-74adbe93ab54"/>
        </subject>
        <requester>
          <reference value="urn:uuid:1301bc1f-9d23-4529-b30d-f1a0e792823c"/>
        </requester>
        <reasonCode>
          <coding>
            <system value="http://snomed.info/sct"/>
            <code value="90688005"/>
          </coding>
          <text value="Chronic renal failure syndrome (disorder)"/>
        </reasonCode>
        <specimen>
          <reference value="Specimen/Urine"/>
          <display value="Urine specimen"/>
        </specimen>
        <note>
          <text value="Please use umol/L as Unit for the ratio calculation umol[albumin]/mmol[creatinine]."/>
        </note>
      </ServiceRequest>
    </resource>
  </entry>
  <entry>
    <fullUrl value="urn:uuid:5d616c75-34c9-47f0-8e15-2df623755c41"/>
    <resource>
      <ServiceRequest>
        <id value="ServiceRequestCreatinineUrine"/>
        <meta>
          <profile value="http://fhir.ch/ig/ch-lab-order/StructureDefinition/ch-lab-order-SR"/>
        </meta>
        <text>
          <status value="generated"/><div xmlns="http://www.w3.org/1999/xhtml"><a name="ServiceRequest_ServiceRequestCreatinineUrine"> </a><p class="res-header-id"><b>Generated Narrative: ServiceRequest ServiceRequestCreatinineUrine</b></p><a name="ServiceRequestCreatinineUrine"> </a><a name="hcServiceRequestCreatinineUrine"> </a><a name="ServiceRequestCreatinineUrine-en-US"> </a><div style="display: inline-block; background-color: #d9e0e7; padding: 6px; margin: 4px; border: 1px solid #8da1b4; border-radius: 5px; line-height: 60%"><p style="margin-bottom: 0px"/><p style="margin-bottom: 0px">Profile: <a href="StructureDefinition-ch-lab-order-SR.html">CH LAB-Order-SR</a></p></div><p><b>identifier</b>: Placer Identifier/Y274589</p><p><b>basedOn</b>: <a href="Bundle-LabOrderDocument.html#urn-uuid-62dd8013-6145-4bbb-8588-b172caaa13af">Bundle: identifier = UUID:bc4715e6-c46d-4794-a379-b809f24ef05d; type = document; timestamp = 2025-03-05 12:00:00+0000</a></p><p><b>requisition</b>: Placer Identifier/ReqID-123456789</p><p><b>status</b>: Active</p><p><b>intent</b>: Original Order</p><p><b>priority</b>: Urgent</p><p><b>code</b>: <span title="Codes:{http://loinc.org 14683-7}">Creatinine [Moles/volume] in Urine</span></p><p><b>orderDetail</b>: <span title="Codes:{http://terminology.hl7.org/CodeSystem/v2-0119 NW}">Order Control code</span></p><p><b>subject</b>: <a href="Bundle-LabOrderDocument.html#urn-uuid-b82ca08b-9476-44a7-9893-74adbe93ab54">Bundle: identifier = UUID:bc4715e6-c46d-4794-a379-b809f24ef05d; type = document; timestamp = 2025-03-05 12:00:00+0000</a></p><p><b>requester</b>: <a href="Bundle-LabOrderDocument.html#urn-uuid-1301bc1f-9d23-4529-b30d-f1a0e792823c">Bundle: identifier = UUID:bc4715e6-c46d-4794-a379-b809f24ef05d; type = document; timestamp = 2025-03-05 12:00:00+0000</a></p><p><b>reasonCode</b>: <span title="Codes:{http://snomed.info/sct 90688005}">Chronic renal failure syndrome (disorder)</span></p><p><b>specimen</b>: <a href="Specimen-Urine.html">Urine specimen</a></p><p><b>note</b>: Please use mmol/L for the ratio calculation mol[albumin]/mmol[creatinine]. Most labs in Switzerland use mg[albumin]/mmol[creatinine] as unit for the ratio calculation.</p></div>
        </text>
        <identifier>
          <type>
            <coding>
              <system value="http://terminology.hl7.org/CodeSystem/v2-0203"/>
              <code value="PLAC"/>
              <display value="Placer Identifier"/>
            </coding>
          </type>
          <system value="urn:oid:2.16.756.5.30.1.123.100.2.1.1"/>
          <value value="Y274589"/>
        </identifier>
        <basedOn>
          <reference value="urn:uuid:62dd8013-6145-4bbb-8588-b172caaa13af"/>
        </basedOn>
        <requisition>
          <type>
            <coding>
              <system value="http://terminology.hl7.org/CodeSystem/v2-0203"/>
              <code value="PLAC"/>
              <display value="Placer Identifier"/>
            </coding>
          </type>
          <system value="http://example.org/placer-system/req-nr"/>
          <value value="ReqID-123456789"/>
        </requisition>
        <status value="active"/>
        <intent value="original-order"/>
        <priority value="urgent"/>
        <code>
          <coding>
            <system value="http://loinc.org"/>
            <code value="14683-7"/>
            <display value="Creatinine [Moles/volume] in Urine"/>
          </coding>
        </code>
        <orderDetail>
          <coding>
            <system value="http://terminology.hl7.org/CodeSystem/v2-0119"/>
            <code value="NW"/>
            <display value="New order/service"/>
          </coding>
          <text value="Order Control code"/>
        </orderDetail>
        <subject>
          <reference value="urn:uuid:b82ca08b-9476-44a7-9893-74adbe93ab54"/>
        </subject>
        <requester>
          <reference value="urn:uuid:1301bc1f-9d23-4529-b30d-f1a0e792823c"/>
        </requester>
        <reasonCode>
          <coding>
            <system value="http://snomed.info/sct"/>
            <code value="90688005"/>
          </coding>
          <text value="Chronic renal failure syndrome (disorder)"/>
        </reasonCode>
        <specimen>
          <reference value="Specimen/Urine"/>
          <display value="Urine specimen"/>
        </specimen>
        <note>
          <text value="Please use mmol/L for the ratio calculation mol[albumin]/mmol[creatinine]. Most labs in Switzerland use mg[albumin]/mmol[creatinine] as unit for the ratio calculation."/>
        </note>
      </ServiceRequest>
    </resource>
  </entry>
</Bundle>