<?xml version="1.0" encoding="UTF-8"?>

<Bundle xmlns="http://hl7.org/fhir">
  <id value="3-gyn-document"/>
  <meta>
    <versionId value="1"/>
    <lastUpdated value="2019-04-01T20:18:41.341+00:00"/>
    <profile value="http://fhir.ch/ig/ch-lab-order/StructureDefinition/ch-lab-order-document-with-sr"/>
  </meta>
  <identifier>
    <system value="urn:ietf:rfc:3986"/>
    <value value="urn:uuid:26d3dff7-ab05-4737-a49c-5eccd33595f8"/>
  </identifier>
  <type value="document"/>
  <timestamp value="2019-04-01T20:18:41.341+00:00"/>
  <entry>
    <fullUrl value="http://example.com/fhir/Composition/3-gyn-with-sr"/>
    <resource>
      <Composition>
        <id value="3-gyn-with-sr"/>
        <meta>
          <versionId value="1"/>
          <lastUpdated value="2021-02-18T17:04:38.520+00:00"/>
          <profile value="http://fhir.ch/ig/ch-lab-order/StructureDefinition/ch-lab-order-composition-with-sr"/>
        </meta>
        <text>
          <status value="additional"/><div xmlns="http://www.w3.org/1999/xhtml"><div>Case study 3</div><div><h3>Annual gynaecological check-up</h3><p>The doctor`s assistent of the gynaecology department in the Olten group practice, Dr Peter Pap, prepares the next day`s consultations. As the practice only has a minimal laboratory of its own, certain patients are sent to the nearby Pipette laboratory outpatient clinic before the appointment, including the young patient Ms Marina Rubella, born 8. 8. 1992. In her practice software, the MPA prescribes the standard analyses agreed with the laboratory for the gynaecological 3-year check-up for patient Rubella. This also includes the Blood sample for the serotonary for any follow-up prescriptions. The laboratory transmits the results to the practice no later than 90 minutes after the Blood sample has been taken. Dr Pap prescribes the following orders during the consultation:</p><ul><li>Gynaecological cervical cytology: Pap smear - if indicated, detection and typing of HPV (human papilloma virus) should also be performed. Collection material according to the laboratory`s instructions. The cytological examination is carried out in the Pipette laboratory. The Pipette laboratory does not perform the typing itself.</li><li>Partial urine status (Combur9 test): carried out by the MPA in the practice: the following parameters are examined: pH, leucocytes, erythrocytes, nitrite, protein, glucose, ketones, urobilinogen, bilirubin (semi-quantitative examinations, results are probably entered manually into the practice laboratory system).</li><li>Urine bacteriology: collection material according to the laboratory`s instructions. General bact, incl. fungi to the laboratory pipette Transmission of the order is triggered by the MPA (collection time)</li><li>Supplementary order “Screening before pregnancy”: All tests can be carried out from the materials (serum, EDTA Blood) taken in advance in the outpatient clinic (hepatitis-Bc antibodies, HIV 1+2 (Ak+p24), rubella IgG, lues/syphilis screening test)</li><li>Mammography: Order for the Dr. Curie X-ray Institute.</li></ul></div></div>
        </text>
        <extension url="http://fhir.ch/ig/ch-core/StructureDefinition/ch-ext-epr-dataenterer">
          <extension url="enterer">
            <valueReference>
              <reference value="PractitionerRole/PeterPapGruppenpraxis"/>
            </valueReference>
          </extension>
        </extension>
        <extension url="http://fhir.ch/ig/ch-orf/StructureDefinition/ch-orf-receiver">
          <valueReference>
            <reference value="PractitionerRole/EvaErlenmeyerLaborPipette"/>
          </valueReference>
        </extension>
        <extension url="http://fhir.ch/ig/ch-orf/StructureDefinition/ch-orf-copyreceiver">
          <valueReference>
            <reference value="PractitionerRole/MarcMustermannGruppenpraxis"/>
          </valueReference>
        </extension>
        <status value="final"/>
        <type>
          <coding>
            <system value="http://snomed.info/sct"/>
            <code value="721965002"/>
            <display value="Laboratory order (record artifact)"/>
          </coding>
        </type>
        <category>
          <coding>
            <system value="http://snomed.info/sct"/>
            <code value="721963009"/>
            <display value="Order (record artifact)"/>
          </coding>
        </category>
        <subject>
          <reference value="Patient/MarinaRubella"/>
        </subject>
        <date value="2020-03-31T11:46:09+02:00"/>
        <author>
          <reference value="PractitionerRole/PeterPapGruppenpraxis"/>
        </author>
        <title value="Laboratory Order 3-gyn"/>
        <section>
          <title value="Laboratory Order with Service Request 3-gyn"/>
          <code>
            <coding>
              <system value="http://snomed.info/sct"/>
              <code value="721963009"/>
              <display value="Order (record artifact)"/>
            </coding>
          </code>
          <text>
            <status value="generated"/><div xmlns="http://www.w3.org/1999/xhtml">Laboratory Order with Service Request 3-gyn</div>
          </text>
          <entry>
            <reference value="ServiceRequest/3-gyn-service-request-smear-test"/>
          </entry>
          <entry>
            <reference value="ServiceRequest/3-gyn-service-request-hpv"/>
          </entry>
          <entry>
            <reference value="ServiceRequest/3-gyn-service-request-urine-panel"/>
          </entry>
          <entry>
            <reference value="ServiceRequest/3-gyn-service-request-obstetric-panel"/>
          </entry>
        </section>
      </Composition>
    </resource>
  </entry>
  <entry>
    <fullUrl value="http://example.com/fhir/Patient/MarinaRubella"/>
    <resource>
      <Patient>
        <id value="MarinaRubella"/>
        <meta>
          <profile value="http://fhir.ch/ig/ch-core/StructureDefinition/ch-core-patient"/>
        </meta>
        <text>
          <status value="additional"/><div xmlns="http://www.w3.org/1999/xhtml"><p><b>id</b>: MarinaRubella</p><p><b>meta</b>:</p><p><b>identifier</b>: 80756011110123400005</p><p><b>name</b>: MarinaRubella</p><p><b>gender</b>: FEMALE</p><p><b>birthDate</b>: Aug 08, 1992</p><p><b>maritalStatus</b>: verheiratet <span style="background: LightGoldenRodYellow">(Details : {$ech-11-maritalstatus code '2' = '2', given as 'verheiratet'})</span></p><h3>Communications</h3><table class="grid"><tr><td>-</td><td><b>Language</b></td><td><b>Preferred</b></td></tr><tr><td>*</td><td>Italienisch (Schweiz) <span style="background: LightGoldenRodYellow">(Details : {urn:ietf:bcp:47 code 'it-CH' = 'Italian (Region=Schweiz))</span></td><td>true</td></tr></table></div>
        </text>
        <extension url="http://hl7.org/fhir/StructureDefinition/patient-birthPlace">
          <valueAddress>
            <city value="Mendrisio"/>
            <country value="Schweiz"/>
          </valueAddress>
        </extension>
        <extension url="http://fhir.ch/ig/ch-core/StructureDefinition/ch-core-patient-ech-11-placeoforigin">
          <valueAddress>
            <city value="Airolo"/>
            <state value="TI"/>
          </valueAddress>
        </extension>
        <extension url="http://hl7.org/fhir/StructureDefinition/patient-religion">
          <valueCodeableConcept>
            <coding>
              <system value="http://terminology.hl7.org/CodeSystem/v3-ReligiousAffiliation"/>
              <code value="1077"/>
              <display value="Protestant"/>
            </coding>
          </valueCodeableConcept>
        </extension>
        <identifier>
          <system value="urn:oid:2.16.756.5.30.1.123.100.1.1.1"/>
          <value value="80756011110123400005"/>
        </identifier>
        <name>
          <use value="official"/>
          <family value="Rubella">
            <extension url="http://fhir.ch/ig/ch-core/StructureDefinition/ch-ext-ech-11-name">
              <valueCode value="officialName"/>
            </extension>
          </family>
          <given value="Marina">
            <extension url="http://fhir.ch/ig/ch-core/StructureDefinition/ch-ext-ech-11-firstname">
              <valueCode value="officialFirstName"/>
            </extension>
          </given>
        </name>
        <name>
          <use value="maiden"/>
          <family value="Meier">
            <extension url="http://fhir.ch/ig/ch-core/StructureDefinition/ch-ext-ech-11-name">
              <valueCode value="originalName"/>
            </extension>
          </family>
        </name>
        <telecom>
          <system value="phone"/>
          <value value="+41 64 123 45 67"/>
          <use value="home"/>
        </telecom>
        <telecom>
          <system value="email"/>
          <value value="marina.rubella@example.ch"/>
        </telecom>
        <gender value="female"/>
        <birthDate value="1992-08-08"/>
        <address>
          <use value="home"/>
          <type value="both"/>
          <line value="Via del bosco 88"/>
          <city value="Airolo"/>
          <postalCode value="6780"/>
        </address>
        <maritalStatus>
          <coding>
            <system value="http://fhir.ch/ig/ch-core/CodeSystem/ech-11-maritalstatus"/>
            <code value="2"/>
            <display value="verheiratet"/>
          </coding>
        </maritalStatus>
        <communication>
          <language>
            <coding>
              <system value="urn:ietf:bcp:47"/>
              <code value="it-CH"/>
            </coding>
            <text value="Italienisch (Schweiz)"/>
          </language>
          <preferred value="true"/>
        </communication>
      </Patient>
    </resource>
  </entry>
  <entry>
    <fullUrl value="http://example.com/fhir/Practitioner/MarcMustermann"/>
    <resource>
      <Practitioner>
        <id value="MarcMustermann"/>
        <meta>
          <profile value="http://fhir.ch/ig/ch-core/StructureDefinition/ch-core-practitioner"/>
        </meta>
        <text>
          <status value="generated"/><div xmlns="http://www.w3.org/1999/xhtml"><a name="Practitioner_MarcMustermann"> </a><p class="res-header-id"><b>Generated Narrative: Practitioner MarcMustermann</b></p><a name="MarcMustermann"> </a><a name="hcMarcMustermann"> </a><a name="MarcMustermann-en-US"> </a><div style="display: inline-block; background-color: #d9e0e7; padding: 6px; margin: 4px; border: 1px solid #8da1b4; border-radius: 5px; line-height: 60%"><p style="margin-bottom: 0px"/><p style="margin-bottom: 0px">Profile: <a href="http://fhir.ch/ig/ch-core/6.0.0-ballot/StructureDefinition-ch-core-practitioner.html">CH Core Practitioner</a></p></div><p><b>identifier</b>: <a href="https://www.gs1.org/standards/id-keys/gln" title="Global Location Number">GLN</a>/7601000050700, <code>urn:oid:2.16.756.5.30.1.123.100.2.1.1</code>/L248519</p><p><b>name</b>: Marc Mustermann (Official)</p><p><b>telecom</b>: ph: 033 444 22 11(Work), <a href="mailto:marc.mustermann@gruppenpraxis.ch">marc.mustermann@gruppenpraxis.ch</a></p></div>
        </text>
        <identifier>
          <system value="urn:oid:2.51.1.3"/>
          <value value="7601000050700"/>
        </identifier>
        <identifier>
          <system value="urn:oid:2.16.756.5.30.1.123.100.2.1.1"/>
          <value value="L248519"/>
        </identifier>
        <name>
          <use value="official"/>
          <family value="Mustermann"/>
          <given value="Marc"/>
          <prefix value="Dr. med.">
            <extension url="http://hl7.org/fhir/StructureDefinition/iso21090-EN-qualifier">
              <valueCode value="AC"/>
            </extension>
          </prefix>
        </name>
        <telecom>
          <system value="phone"/>
          <value value="033 444 22 11"/>
          <use value="work"/>
        </telecom>
        <telecom>
          <system value="email"/>
          <value value="marc.mustermann@gruppenpraxis.ch"/>
          <use value="work"/>
        </telecom>
      </Practitioner>
    </resource>
  </entry>
  <entry>
    <fullUrl value="http://example.com/fhir/Organization/Gruppenpraxis"/>
    <resource>
      <Organization>
        <id value="Gruppenpraxis"/>
        <meta>
          <profile value="http://fhir.ch/ig/ch-core/StructureDefinition/ch-core-organization-epr"/>
        </meta>
        <text>
          <status value="generated"/><div xmlns="http://www.w3.org/1999/xhtml"><a name="Organization_Gruppenpraxis"> </a><p class="res-header-id"><b>Generated Narrative: Organization Gruppenpraxis</b></p><a name="Gruppenpraxis"> </a><a name="hcGruppenpraxis"> </a><a name="Gruppenpraxis-en-US"> </a><div style="display: inline-block; background-color: #d9e0e7; padding: 6px; margin: 4px; border: 1px solid #8da1b4; border-radius: 5px; line-height: 60%"><p style="margin-bottom: 0px"/><p style="margin-bottom: 0px">Profile: <a href="http://fhir.ch/ig/ch-core/6.0.0-ballot/StructureDefinition-ch-core-organization-epr.html">CH Core Organization EPR</a></p></div><p><b>identifier</b>: <a href="https://www.gs1.org/standards/id-keys/gln" title="Global Location Number">GLN</a>/7601000241115</p><p><b>name</b>: Gruppenpraxis Olten</p><p><b>telecom</b>: <a href="tel:+41555556677">+41555556677</a>, <a href="mailto:info@gruppenpraxis.ch">info@gruppenpraxis.ch</a>, <a href="http://www.gruppenpraxis.ch">http://www.gruppenpraxis.ch</a></p><p><b>address</b>: Gerbergasse 12 Olten 4600 CH </p></div>
        </text>
        <identifier>
          <system value="urn:oid:2.51.1.3"/>
          <value value="7601000241115"/>
        </identifier>
        <name value="Gruppenpraxis Olten"/>
        <telecom>
          <system value="phone"/>
          <value value="+41555556677"/>
          <use value="work"/>
        </telecom>
        <telecom>
          <system value="email"/>
          <value value="info@gruppenpraxis.ch"/>
          <use value="work"/>
        </telecom>
        <telecom>
          <system value="url"/>
          <value value="http://www.gruppenpraxis.ch"/>
          <use value="work"/>
        </telecom>
        <address>
          <line value="Gerbergasse 12"/>
          <city value="Olten"/>
          <postalCode value="4600"/>
          <country value="CH"/>
        </address>
      </Organization>
    </resource>
  </entry>
  <entry>
    <fullUrl value="http://example.com/fhir/PractitionerRole/MarcMustermannGruppenpraxis"/>
    <resource>
      <PractitionerRole>
        <id value="MarcMustermannGruppenpraxis"/>
        <meta>
          <profile value="http://fhir.ch/ig/ch-core/StructureDefinition/ch-core-practitionerrole"/>
        </meta>
        <text>
          <status value="generated"/><div xmlns="http://www.w3.org/1999/xhtml"><a name="PractitionerRole_MarcMustermannGruppenpraxis"> </a><p class="res-header-id"><b>Generated Narrative: PractitionerRole MarcMustermannGruppenpraxis</b></p><a name="MarcMustermannGruppenpraxis"> </a><a name="hcMarcMustermannGruppenpraxis"> </a><a name="MarcMustermannGruppenpraxis-en-US"> </a><div style="display: inline-block; background-color: #d9e0e7; padding: 6px; margin: 4px; border: 1px solid #8da1b4; border-radius: 5px; line-height: 60%"><p style="margin-bottom: 0px"/><p style="margin-bottom: 0px">Profile: <a href="http://fhir.ch/ig/ch-core/6.0.0-ballot/StructureDefinition-ch-core-practitionerrole.html">CH Core PractitionerRole</a></p></div><p><b>practitioner</b>: <a href="Practitioner-MarcMustermann.html">Practitioner Marc Mustermann (official)</a></p><p><b>organization</b>: <a href="Organization-Gruppenpraxis.html">Organization Gruppenpraxis Olten</a></p></div>
        </text>
        <practitioner>
          <reference value="Practitioner/MarcMustermann"/>
        </practitioner>
        <organization>
          <reference value="Organization/Gruppenpraxis"/>
        </organization>
      </PractitionerRole>
    </resource>
  </entry>
  <entry>
    <fullUrl value="http://example.com/fhir/Practitioner/EvaErlenmeyer"/>
    <resource>
      <Practitioner>
        <id value="EvaErlenmeyer"/>
        <meta>
          <profile value="http://fhir.ch/ig/ch-core/StructureDefinition/ch-core-practitioner"/>
        </meta>
        <text>
          <status value="generated"/><div xmlns="http://www.w3.org/1999/xhtml"><a name="Practitioner_EvaErlenmeyer"> </a><p class="res-header-id"><b>Generated Narrative: Practitioner EvaErlenmeyer</b></p><a name="EvaErlenmeyer"> </a><a name="hcEvaErlenmeyer"> </a><a name="EvaErlenmeyer-en-US"> </a><div style="display: inline-block; background-color: #d9e0e7; padding: 6px; margin: 4px; border: 1px solid #8da1b4; border-radius: 5px; line-height: 60%"><p style="margin-bottom: 0px"/><p style="margin-bottom: 0px">Profile: <a href="http://fhir.ch/ig/ch-core/6.0.0-ballot/StructureDefinition-ch-core-practitioner.html">CH Core Practitioner</a></p></div><p><b>identifier</b>: <a href="https://www.gs1.org/standards/id-keys/gln" title="Global Location Number">GLN</a>/7601000050717, <code>urn:oid:2.16.756.5.30.1.123.100.2.1.1</code>/Y274589</p><p><b>name</b>: Eva Erlenmeyer (Official)</p><p><b>telecom</b>: ph: 033 444 55 66(Work), <a href="mailto:eva.erlenmeyer@labor-pipette.ch">eva.erlenmeyer@labor-pipette.ch</a></p></div>
        </text>
        <identifier>
          <system value="urn:oid:2.51.1.3"/>
          <value value="7601000050717"/>
        </identifier>
        <identifier>
          <system value="urn:oid:2.16.756.5.30.1.123.100.2.1.1"/>
          <value value="Y274589"/>
        </identifier>
        <name>
          <use value="official"/>
          <family value="Erlenmeyer"/>
          <given value="Eva"/>
          <prefix value="Dr. med.">
            <extension url="http://hl7.org/fhir/StructureDefinition/iso21090-EN-qualifier">
              <valueCode value="AC"/>
            </extension>
          </prefix>
        </name>
        <telecom>
          <system value="phone"/>
          <value value="033 444 55 66"/>
          <use value="work"/>
        </telecom>
        <telecom>
          <system value="email"/>
          <value value="eva.erlenmeyer@labor-pipette.ch"/>
          <use value="work"/>
        </telecom>
      </Practitioner>
    </resource>
  </entry>
  <entry>
    <fullUrl value="http://example.com/fhir/Organization/LaborPipette"/>
    <resource>
      <Organization>
        <id value="LaborPipette"/>
        <meta>
          <profile value="http://fhir.ch/ig/ch-core/StructureDefinition/ch-core-organization"/>
        </meta>
        <text>
          <status value="generated"/><div xmlns="http://www.w3.org/1999/xhtml"><a name="Organization_LaborPipette"> </a><p class="res-header-id"><b>Generated Narrative: Organization LaborPipette</b></p><a name="LaborPipette"> </a><a name="hcLaborPipette"> </a><a name="LaborPipette-en-US"> </a><div style="display: inline-block; background-color: #d9e0e7; padding: 6px; margin: 4px; border: 1px solid #8da1b4; border-radius: 5px; line-height: 60%"><p style="margin-bottom: 0px"/><p style="margin-bottom: 0px">Profile: <a href="http://fhir.ch/ig/ch-core/6.0.0-ballot/StructureDefinition-ch-core-organization.html">CH Core Organization</a></p></div><p><b>identifier</b>: <a href="https://www.gs1.org/standards/id-keys/gln" title="Global Location Number">GLN</a>/7601000234407</p><p><b>name</b>: Labor Pipette</p><p><b>telecom</b>: <a href="tel:+41223345566">+41223345566</a>, <a href="mailto:info@labor-pipette.ch">info@labor-pipette.ch</a>, <a href="http://www.labor-pipette.ch">http://www.labor-pipette.ch</a></p><p><b>address</b>: Laborstrasse 23 Olten 4600 CH </p></div>
        </text>
        <identifier>
          <system value="urn:oid:2.51.1.3"/>
          <value value="7601000234407"/>
        </identifier>
        <name value="Labor Pipette"/>
        <telecom>
          <system value="phone"/>
          <value value="+41223345566"/>
          <use value="work"/>
        </telecom>
        <telecom>
          <system value="email"/>
          <value value="info@labor-pipette.ch"/>
          <use value="work"/>
        </telecom>
        <telecom>
          <system value="url"/>
          <value value="http://www.labor-pipette.ch"/>
          <use value="work"/>
        </telecom>
        <address>
          <line value="Laborstrasse 23"/>
          <city value="Olten"/>
          <postalCode value="4600"/>
          <country value="CH"/>
        </address>
      </Organization>
    </resource>
  </entry>
  <entry>
    <fullUrl value="http://example.com/fhir/PractitionerRole/EvaErlenmeyerLaborPipette"/>
    <resource>
      <PractitionerRole>
        <id value="EvaErlenmeyerLaborPipette"/>
        <meta>
          <profile value="http://fhir.ch/ig/ch-core/StructureDefinition/ch-core-practitionerrole"/>
        </meta>
        <text>
          <status value="generated"/><div xmlns="http://www.w3.org/1999/xhtml"><a name="PractitionerRole_EvaErlenmeyerLaborPipette"> </a><p class="res-header-id"><b>Generated Narrative: PractitionerRole EvaErlenmeyerLaborPipette</b></p><a name="EvaErlenmeyerLaborPipette"> </a><a name="hcEvaErlenmeyerLaborPipette"> </a><a name="EvaErlenmeyerLaborPipette-en-US"> </a><div style="display: inline-block; background-color: #d9e0e7; padding: 6px; margin: 4px; border: 1px solid #8da1b4; border-radius: 5px; line-height: 60%"><p style="margin-bottom: 0px"/><p style="margin-bottom: 0px">Profile: <a href="http://fhir.ch/ig/ch-core/6.0.0-ballot/StructureDefinition-ch-core-practitionerrole.html">CH Core PractitionerRole</a></p></div><p><b>identifier</b>: <code>urn:oid:2.16.756.5.30.1.123.100.2.1.1</code>/K333333</p><p><b>practitioner</b>: <a href="Practitioner-EvaErlenmeyer.html">Practitioner Eva Erlenmeyer (official)</a></p><p><b>organization</b>: <a href="Organization-LaborPipette.html">Organization Labor Pipette</a></p></div>
        </text>
        <identifier>
          <system value="urn:oid:2.16.756.5.30.1.123.100.2.1.1"/>
          <value value="K333333"/>
        </identifier>
        <practitioner>
          <reference value="Practitioner/EvaErlenmeyer"/>
        </practitioner>
        <organization>
          <reference value="Organization/LaborPipette"/>
        </organization>
      </PractitionerRole>
    </resource>
  </entry>
  <entry>
    <fullUrl value="http://example.com/fhir/Practitioner/PeterPap"/>
    <resource>
      <Practitioner>
        <id value="PeterPap"/>
        <meta>
          <profile value="http://fhir.ch/ig/ch-core/StructureDefinition/ch-core-practitioner"/>
        </meta>
        <text>
          <status value="generated"/><div xmlns="http://www.w3.org/1999/xhtml"><a name="Practitioner_PeterPap"> </a><p class="res-header-id"><b>Generated Narrative: Practitioner PeterPap</b></p><a name="PeterPap"> </a><a name="hcPeterPap"> </a><a name="PeterPap-en-US"> </a><div style="display: inline-block; background-color: #d9e0e7; padding: 6px; margin: 4px; border: 1px solid #8da1b4; border-radius: 5px; line-height: 60%"><p style="margin-bottom: 0px"/><p style="margin-bottom: 0px">Profile: <a href="http://fhir.ch/ig/ch-core/6.0.0-ballot/StructureDefinition-ch-core-practitioner.html">CH Core Practitioner</a></p></div><p><b>identifier</b>: <a href="https://www.gs1.org/standards/id-keys/gln" title="Global Location Number">GLN</a>/7601003050707, <code>urn:oid:2.16.756.5.30.1.123.100.2.1.1</code>/A000001</p><p><b>name</b>: Peter Pap (Official)</p><p><b>telecom</b>: ph: 032 333 22 40(Work), <a href="mailto:peter.pap@gruppenpraxis.ch">peter.pap@gruppenpraxis.ch</a></p></div>
        </text>
        <identifier>
          <system value="urn:oid:2.51.1.3"/>
          <value value="7601003050707"/>
        </identifier>
        <identifier>
          <system value="urn:oid:2.16.756.5.30.1.123.100.2.1.1"/>
          <value value="A000001"/>
        </identifier>
        <name>
          <use value="official"/>
          <family value="Pap"/>
          <given value="Peter"/>
          <prefix value="Dr. med.">
            <extension url="http://hl7.org/fhir/StructureDefinition/iso21090-EN-qualifier">
              <valueCode value="AC"/>
            </extension>
          </prefix>
        </name>
        <telecom>
          <system value="phone"/>
          <value value="032 333 22 40"/>
          <use value="work"/>
        </telecom>
        <telecom>
          <system value="email"/>
          <value value="peter.pap@gruppenpraxis.ch"/>
          <use value="work"/>
        </telecom>
      </Practitioner>
    </resource>
  </entry>
  <entry>
    <fullUrl value="http://example.com/fhir/PractitionerRole/PeterPapGruppenpraxis"/>
    <resource>
      <PractitionerRole>
        <id value="PeterPapGruppenpraxis"/>
        <meta>
          <profile value="http://fhir.ch/ig/ch-core/StructureDefinition/ch-core-practitionerrole"/>
        </meta>
        <text>
          <status value="generated"/><div xmlns="http://www.w3.org/1999/xhtml"><a name="PractitionerRole_PeterPapGruppenpraxis"> </a><p class="res-header-id"><b>Generated Narrative: PractitionerRole PeterPapGruppenpraxis</b></p><a name="PeterPapGruppenpraxis"> </a><a name="hcPeterPapGruppenpraxis"> </a><a name="PeterPapGruppenpraxis-en-US"> </a><div style="display: inline-block; background-color: #d9e0e7; padding: 6px; margin: 4px; border: 1px solid #8da1b4; border-radius: 5px; line-height: 60%"><p style="margin-bottom: 0px"/><p style="margin-bottom: 0px">Profile: <a href="http://fhir.ch/ig/ch-core/6.0.0-ballot/StructureDefinition-ch-core-practitionerrole.html">CH Core PractitionerRole</a></p></div><p><b>practitioner</b>: <a href="Practitioner-PeterPap.html">Practitioner Peter Pap (official)</a></p><p><b>organization</b>: <a href="Organization-Gruppenpraxis.html">Organization Gruppenpraxis Olten</a></p></div>
        </text>
        <practitioner>
          <reference value="Practitioner/PeterPap"/>
        </practitioner>
        <organization>
          <reference value="Organization/Gruppenpraxis"/>
        </organization>
      </PractitionerRole>
    </resource>
  </entry>
  <entry>
    <fullUrl value="http://example.com/fhir/Specimen/Cervix-swab"/>
    <resource>
      <Specimen>
        <id value="Cervix-swab"/>
        <text>
          <status value="generated"/><div xmlns="http://www.w3.org/1999/xhtml"><a name="Specimen_Cervix-swab"> </a><p class="res-header-id"><b>Generated Narrative: Specimen Cervix-swab</b></p><a name="Cervix-swab"> </a><a name="hcCervix-swab"> </a><a name="Cervix-swab-en-US"> </a><p><b>identifier</b>: 48736-12345-12345</p><p><b>accessionIdentifier</b>: 4e88a-12345-aa222</p><p><b>status</b>: Available</p><p><b>type</b>: <span title="Codes:{http://snomed.info/sct 430387006}">Combined specimen of cytologic material from endocervix, ectocervix, and vaginal fornix (specimen)</span></p><p><b>subject</b>: <a href="Patient-MarinaRubella.html">Marina Rubella (official) Female, DoB: 1992-08-08 ( urn:oid:2.16.756.5.30.1.123.100.1.1.1#80756011110123400005)</a></p><p><b>request</b>: <a href="ServiceRequest-3-gyn-service-request-smear-test.html">ServiceRequest Pap smear tests - FPAR 2.0 set</a></p><h3>Collections</h3><table class="grid"><tr><td style="display: none">-</td><td><b>Collector</b></td><td><b>Collected[x]</b></td></tr><tr><td style="display: none">*</td><td><a href="Practitioner-PeterPap.html">Practitioner Peter Pap (official)</a></td><td>2015-08-16 06:40:17+0000</td></tr></table><h3>Containers</h3><table class="grid"><tr><td style="display: none">-</td><td><b>Type</b></td></tr><tr><td style="display: none">*</td><td><span title="Codes:{http://snomed.info/sct 706053007}">General specimen container (physical object)</span></td></tr></table></div>
        </text>
        <identifier>
          <value value="48736-12345-12345"/>
        </identifier>
        <accessionIdentifier>
          <value value="4e88a-12345-aa222"/>
        </accessionIdentifier>
        <status value="available"/>
        <type>
          <coding>
            <system value="http://snomed.info/sct"/>
            <code value="430387006"/>
            <display value="Combined specimen of cytologic material from endocervix, ectocervix, and vaginal fornix (specimen)"/>
          </coding>
        </type>
        <subject>
          <reference value="Patient/MarinaRubella"/>
        </subject>
        <request>
          <reference value="ServiceRequest/3-gyn-service-request-smear-test"/>
        </request>
        <collection>
          <collector>
            <reference value="Practitioner/PeterPap"/>
          </collector>
          <collectedDateTime value="2015-08-16T06:40:17Z"/>
        </collection>
        <container>
          <type>
            <coding>
              <system value="http://snomed.info/sct"/>
              <code value="706053007"/>
              <display value="General specimen container (physical object)"/>
            </coding>
          </type>
        </container>
      </Specimen>
    </resource>
  </entry>
  <entry>
    <fullUrl value="http://example.com/fhir/Specimen/Blood-gyn"/>
    <resource>
      <Specimen>
        <id value="Blood-gyn"/>
        <text>
          <status value="generated"/><div xmlns="http://www.w3.org/1999/xhtml"><a name="Specimen_Blood-gyn"> </a><p class="res-header-id"><b>Generated Narrative: Specimen Blood-gyn</b></p><a name="Blood-gyn"> </a><a name="hcBlood-gyn"> </a><a name="Blood-gyn-en-US"> </a><p><b>status</b>: Available</p><p><b>type</b>: <span title="Codes:{http://snomed.info/sct 119297000}">Blood sample</span></p><p><b>subject</b>: <a href="Patient-MarinaRubella.html">Marina Rubella (official) Female, DoB: 1992-08-08 ( urn:oid:2.16.756.5.30.1.123.100.1.1.1#80756011110123400005)</a></p><p><b>request</b>: <a href="ServiceRequest-3-gyn-service-request-obstetric-panel.html">ServiceRequest Obstetric 1996 Pnl Ser+Bld</a></p><h3>Collections</h3><table class="grid"><tr><td style="display: none">-</td><td><b>Collector</b></td><td><b>Collected[x]</b></td><td><b>BodySite</b></td></tr><tr><td style="display: none">*</td><td><a href="Practitioner-PeterPap.html">Practitioner Peter Pap (official)</a></td><td>2015-08-16 06:40:17+0000</td><td><span title="Codes:{http://snomed.info/sct 721029009}">Structure of superficial vein of left upper limb (body structure)</span></td></tr></table><h3>Containers</h3><table class="grid"><tr><td style="display: none">-</td><td><b>Type</b></td></tr><tr><td style="display: none">*</td><td><span title="Codes:{http://snomed.info/sct 706053007}">General specimen container (physical object)</span></td></tr></table><p><b>note</b>: Specimen is grossly lipemic</p></div>
        </text>
        <status value="available"/>
        <type>
          <coding>
            <system value="http://snomed.info/sct"/>
            <code value="119297000"/>
            <display value="Blood sample"/>
          </coding>
        </type>
        <subject>
          <reference value="Patient/MarinaRubella"/>
        </subject>
        <request>
          <reference value="ServiceRequest/3-gyn-service-request-obstetric-panel"/>
        </request>
        <collection>
          <collector>
            <reference value="Practitioner/PeterPap"/>
          </collector>
          <collectedDateTime value="2015-08-16T06:40:17Z"/>
          <bodySite>
            <coding>
              <system value="http://snomed.info/sct"/>
              <code value="721029009"/>
              <display value="Structure of superficial vein of left upper limb (body structure)"/>
            </coding>
          </bodySite>
        </collection>
        <container>
          <type>
            <coding>
              <system value="http://snomed.info/sct"/>
              <code value="706053007"/>
              <display value="General specimen container (physical object)"/>
            </coding>
          </type>
        </container>
        <note>
          <text value="Specimen is grossly lipemic"/>
        </note>
      </Specimen>
    </resource>
  </entry>
  <entry>
    <fullUrl value="http://example.com/fhir/Specimen/Serum-gyn"/>
    <resource>
      <Specimen>
        <id value="Serum-gyn"/>
        <text>
          <status value="generated"/><div xmlns="http://www.w3.org/1999/xhtml"><a name="Specimen_Serum-gyn"> </a><p class="res-header-id"><b>Generated Narrative: Specimen Serum-gyn</b></p><a name="Serum-gyn"> </a><a name="hcSerum-gyn"> </a><a name="Serum-gyn-en-US"> </a><p><b>identifier</b>: 48736-12345-75465</p><p><b>accessionIdentifier</b>: 4e88a-12345-dd888</p><p><b>status</b>: Available</p><p><b>type</b>: <span title="Codes:{http://snomed.info/sct 119364003}">Serum specimen (specimen)</span></p><p><b>subject</b>: <a href="Patient-MarinaRubella.html">Marina Rubella (official) Female, DoB: 1992-08-08 ( urn:oid:2.16.756.5.30.1.123.100.1.1.1#80756011110123400005)</a></p><p><b>request</b>: <a href="ServiceRequest-3-gyn-service-request-obstetric-panel.html">ServiceRequest Obstetric 1996 Pnl Ser+Bld</a></p><h3>Collections</h3><table class="grid"><tr><td style="display: none">-</td><td><b>Collector</b></td><td><b>Collected[x]</b></td><td><b>BodySite</b></td><td><b>FastingStatus[x]</b></td></tr><tr><td style="display: none">*</td><td><a href="Practitioner-PeterPap.html">Practitioner Peter Pap (official)</a></td><td>2015-08-16 06:40:17+0000</td><td><span title="Codes:{http://snomed.info/sct 49852007}">Structure of median cubital vein (body structure)</span></td><td><span title="Codes:{http://terminology.hl7.org/CodeSystem/v2-0916 F}">Patient was fasting prior to the procedure.</span></td></tr></table><h3>Containers</h3><table class="grid"><tr><td style="display: none">-</td><td><b>Type</b></td></tr><tr><td style="display: none">*</td><td><span title="Codes:{http://snomed.info/sct 706053007}">General specimen container (physical object)</span></td></tr></table></div>
        </text>
        <identifier>
          <value value="48736-12345-75465"/>
        </identifier>
        <accessionIdentifier>
          <value value="4e88a-12345-dd888"/>
        </accessionIdentifier>
        <status value="available"/>
        <type>
          <coding>
            <system value="http://snomed.info/sct"/>
            <code value="119364003"/>
            <display value="Serum specimen (specimen)"/>
          </coding>
        </type>
        <subject>
          <reference value="Patient/MarinaRubella"/>
        </subject>
        <request>
          <reference value="ServiceRequest/3-gyn-service-request-obstetric-panel"/>
        </request>
        <collection>
          <collector>
            <reference value="Practitioner/PeterPap"/>
          </collector>
          <collectedDateTime value="2015-08-16T06:40:17Z"/>
          <bodySite>
            <coding>
              <system value="http://snomed.info/sct"/>
              <code value="49852007"/>
              <display value="Structure of median cubital vein (body structure)"/>
            </coding>
          </bodySite>
          <fastingStatusCodeableConcept>
            <coding>
              <system value="http://terminology.hl7.org/CodeSystem/v2-0916"/>
              <code value="F"/>
              <display value="Patient was fasting prior to the procedure."/>
            </coding>
          </fastingStatusCodeableConcept>
        </collection>
        <container>
          <type>
            <coding>
              <system value="http://snomed.info/sct"/>
              <code value="706053007"/>
              <display value="General specimen container (physical object)"/>
            </coding>
          </type>
        </container>
      </Specimen>
    </resource>
  </entry>
  <entry>
    <fullUrl value="http://example.com/fhir/Specimen/Urine-gyn"/>
    <resource>
      <Specimen>
        <id value="Urine-gyn"/>
        <text>
          <status value="generated"/><div xmlns="http://www.w3.org/1999/xhtml"><a name="Specimen_Urine-gyn"> </a><p class="res-header-id"><b>Generated Narrative: Specimen Urine-gyn</b></p><a name="Urine-gyn"> </a><a name="hcUrine-gyn"> </a><a name="Urine-gyn-en-US"> </a><p><b>identifier</b>: 11111-15394-75465</p><p><b>accessionIdentifier</b>: 22222-bc987-dd888</p><p><b>status</b>: Available</p><p><b>type</b>: <span title="Codes:{http://snomed.info/sct 122575003}">Urine sample</span></p><p><b>subject</b>: <a href="Patient-MarinaRubella.html">Marina Rubella (official) Female, DoB: 1992-08-08 ( urn:oid:2.16.756.5.30.1.123.100.1.1.1#80756011110123400005)</a></p><p><b>receivedTime</b>: 2023-12-01 16:40:17+0000</p><p><b>request</b>: <a href="ServiceRequest-3-gyn-service-request-urine-panel.html">ServiceRequest Urinalysis dipstick panel - Urine by Automated test strip</a></p><h3>Collections</h3><table class="grid"><tr><td style="display: none">-</td><td><b>Collector</b></td><td><b>Collected[x]</b></td></tr><tr><td style="display: none">*</td><td><a href="Practitioner-PeterPap.html">Practitioner Peter Pap (official)</a></td><td>2023-12-01 06:40:17+0000</td></tr></table><h3>Containers</h3><table class="grid"><tr><td style="display: none">-</td><td><b>Identifier</b></td><td><b>Description</b></td><td><b>Type</b></td></tr><tr><td style="display: none">*</td><td>4e88a-bc987-dd888-12345-urin</td><td>Uriswab™ : Urine Collection System</td><td><span title="Codes:{http://snomed.info/sct 706054001}">Urine specimen container (physical object)</span></td></tr></table></div>
        </text>
        <identifier>
          <value value="11111-15394-75465"/>
        </identifier>
        <accessionIdentifier>
          <value value="22222-bc987-dd888"/>
        </accessionIdentifier>
        <status value="available"/>
        <type>
          <coding>
            <system value="http://snomed.info/sct"/>
            <code value="122575003"/>
            <display value="Urine sample"/>
          </coding>
        </type>
        <subject>
          <reference value="Patient/MarinaRubella"/>
        </subject>
        <receivedTime value="2023-12-01T16:40:17Z"/>
        <request>
          <reference value="ServiceRequest/3-gyn-service-request-urine-panel"/>
        </request>
        <collection>
          <collector>
            <reference value="Practitioner/PeterPap"/>
          </collector>
          <collectedDateTime value="2023-12-01T06:40:17Z"/>
        </collection>
        <container>
          <identifier>
            <value value="4e88a-bc987-dd888-12345-urin"/>
          </identifier>
          <description value="Uriswab™ : Urine Collection System"/>
          <type>
            <coding>
              <system value="http://snomed.info/sct"/>
              <code value="706054001"/>
              <display value="Urine specimen container (physical object)"/>
            </coding>
          </type>
        </container>
      </Specimen>
    </resource>
  </entry>
  <entry>
    <fullUrl value="http://example.com/fhir/ServiceRequest/3-gyn-service-request-smear-test"/>
    <resource>
      <ServiceRequest>
        <id value="3-gyn-service-request-smear-test"/>
        <meta>
          <profile value="http://fhir.ch/ig/ch-lab-order/StructureDefinition/ch-lab-order-SR"/>
        </meta>
        <text>
          <status value="generated"/><div xmlns="http://www.w3.org/1999/xhtml"><a name="ServiceRequest_3-gyn-service-request-smear-test"> </a><p class="res-header-id"><b>Generated Narrative: ServiceRequest 3-gyn-service-request-smear-test</b></p><a name="3-gyn-service-request-smear-test"> </a><a name="hc3-gyn-service-request-smear-test"> </a><a name="3-gyn-service-request-smear-test-en-US"> </a><div style="display: inline-block; background-color: #d9e0e7; padding: 6px; margin: 4px; border: 1px solid #8da1b4; border-radius: 5px; line-height: 60%"><p style="margin-bottom: 0px"/><p style="margin-bottom: 0px">Profile: <a href="StructureDefinition-ch-lab-order-SR.html">CH LAB-Order-SR</a></p></div><p><b>identifier</b>: Placer Identifier/Y274589</p><p><b>status</b>: Active</p><p><b>intent</b>: Original Order</p><p><b>priority</b>: Routine</p><p><b>code</b>: <span title="Codes:{http://loinc.org 86662-4}">Pap smear tests - FPAR 2.0 set</span></p><p><b>subject</b>: <a href="Patient-MarinaRubella.html">Marina Rubella (official) Female, DoB: 1992-08-08 ( urn:oid:2.16.756.5.30.1.123.100.1.1.1#80756011110123400005)</a></p><p><b>requester</b>: <a href="PractitionerRole-PeterPapGruppenpraxis.html">PractitionerRole</a></p><p><b>reasonCode</b>: <span title="Codes:{http://snomed.info/sct 702601001}">Routine gynecologic examination (procedure)</span></p><p><b>specimen</b>: <a href="Specimen-Cervix-swab.html">Specimen: identifier = 48736-12345-12345; accessionIdentifier = 4e88a-12345-aa222; status = available; type = Combined specimen of cytologic material from endocervix, ectocervix, and vaginal fornix (specimen)</a></p></div>
        </text>
        <identifier>
          <type>
            <coding>
              <system value="http://terminology.hl7.org/CodeSystem/v2-0203"/>
              <code value="PLAC"/>
              <display value="Placer Identifier"/>
            </coding>
          </type>
          <system value="urn:oid:2.16.756.5.30.1.123.100.2.1.1"/>
          <value value="Y274589"/>
        </identifier>
        <status value="active"/>
        <intent value="original-order"/>
        <priority value="routine"/>
        <code>
          <coding>
            <system value="http://loinc.org"/>
            <code value="86662-4"/>
            <display value="Pap smear tests - FPAR 2.0 set"/>
          </coding>
        </code>
        <subject>
          <reference value="Patient/MarinaRubella"/>
        </subject>
        <requester>
          <reference value="PractitionerRole/PeterPapGruppenpraxis"/>
        </requester>
        <reasonCode>
          <coding>
            <system value="http://snomed.info/sct"/>
            <code value="702601001"/>
          </coding>
          <text value="Routine gynecologic examination (procedure)"/>
        </reasonCode>
        <specimen>
          <reference value="Specimen/Cervix-swab"/>
        </specimen>
      </ServiceRequest>
    </resource>
  </entry>
  <entry>
    <fullUrl value="http://example.com/fhir/ServiceRequest/3-gyn-service-request-hpv"/>
    <resource>
      <ServiceRequest>
        <id value="3-gyn-service-request-hpv"/>
        <meta>
          <profile value="http://fhir.ch/ig/ch-lab-order/StructureDefinition/ch-lab-order-SR"/>
        </meta>
        <text>
          <status value="generated"/><div xmlns="http://www.w3.org/1999/xhtml"><a name="ServiceRequest_3-gyn-service-request-hpv"> </a><p class="res-header-id"><b>Generated Narrative: ServiceRequest 3-gyn-service-request-hpv</b></p><a name="3-gyn-service-request-hpv"> </a><a name="hc3-gyn-service-request-hpv"> </a><a name="3-gyn-service-request-hpv-en-US"> </a><div style="display: inline-block; background-color: #d9e0e7; padding: 6px; margin: 4px; border: 1px solid #8da1b4; border-radius: 5px; line-height: 60%"><p style="margin-bottom: 0px"/><p style="margin-bottom: 0px">Profile: <a href="StructureDefinition-ch-lab-order-SR.html">CH LAB-Order-SR</a></p></div><p><b>identifier</b>: Placer Identifier/Y274589</p><p><b>status</b>: Active</p><p><b>intent</b>: Original Order</p><p><b>priority</b>: Routine</p><p><b>code</b>: <span title="Codes:{http://loinc.org 14503-7}">Human papilloma virus 16+18 Ag [Presence] in Cervix</span></p><p><b>subject</b>: <a href="Patient-MarinaRubella.html">Marina Rubella (official) Female, DoB: 1992-08-08 ( urn:oid:2.16.756.5.30.1.123.100.1.1.1#80756011110123400005)</a></p><p><b>requester</b>: <a href="PractitionerRole-PeterPapGruppenpraxis.html">PractitionerRole</a></p><p><b>reasonCode</b>: <span title="Codes:{http://snomed.info/sct 702601001}">Routine gynecologic examination (procedure)</span></p><p><b>specimen</b>: <a href="Specimen-Cervix-swab.html">Specimen: identifier = 48736-12345-12345; accessionIdentifier = 4e88a-12345-aa222; status = available; type = Combined specimen of cytologic material from endocervix, ectocervix, and vaginal fornix (specimen)</a></p></div>
        </text>
        <identifier>
          <type>
            <coding>
              <system value="http://terminology.hl7.org/CodeSystem/v2-0203"/>
              <code value="PLAC"/>
              <display value="Placer Identifier"/>
            </coding>
          </type>
          <system value="urn:oid:2.16.756.5.30.1.123.100.2.1.1"/>
          <value value="Y274589"/>
        </identifier>
        <status value="active"/>
        <intent value="original-order"/>
        <priority value="routine"/>
        <code>
          <coding>
            <system value="http://loinc.org"/>
            <code value="14503-7"/>
            <display value="Human papilloma virus 16+18 Ag [Presence] in Cervix"/>
          </coding>
        </code>
        <subject>
          <reference value="Patient/MarinaRubella"/>
        </subject>
        <requester>
          <reference value="PractitionerRole/PeterPapGruppenpraxis"/>
        </requester>
        <reasonCode>
          <coding>
            <system value="http://snomed.info/sct"/>
            <code value="702601001"/>
          </coding>
          <text value="Routine gynecologic examination (procedure)"/>
        </reasonCode>
        <specimen>
          <reference value="Specimen/Cervix-swab"/>
        </specimen>
      </ServiceRequest>
    </resource>
  </entry>
  <entry>
    <fullUrl value="http://example.com/fhir/ServiceRequest/3-gyn-service-request-urine-panel"/>
    <resource>
      <ServiceRequest>
        <id value="3-gyn-service-request-urine-panel"/>
        <meta>
          <profile value="http://fhir.ch/ig/ch-lab-order/StructureDefinition/ch-lab-order-SR"/>
        </meta>
        <text>
          <status value="generated"/><div xmlns="http://www.w3.org/1999/xhtml"><a name="ServiceRequest_3-gyn-service-request-urine-panel"> </a><p class="res-header-id"><b>Generated Narrative: ServiceRequest 3-gyn-service-request-urine-panel</b></p><a name="3-gyn-service-request-urine-panel"> </a><a name="hc3-gyn-service-request-urine-panel"> </a><a name="3-gyn-service-request-urine-panel-en-US"> </a><div style="display: inline-block; background-color: #d9e0e7; padding: 6px; margin: 4px; border: 1px solid #8da1b4; border-radius: 5px; line-height: 60%"><p style="margin-bottom: 0px"/><p style="margin-bottom: 0px">Profile: <a href="StructureDefinition-ch-lab-order-SR.html">CH LAB-Order-SR</a></p></div><p><b>identifier</b>: Placer Identifier/Y274589</p><p><b>status</b>: Active</p><p><b>intent</b>: Original Order</p><p><b>priority</b>: Routine</p><p><b>code</b>: <span title="Codes:{http://loinc.org 50556-0}">Urinalysis dipstick panel - Urine by Automated test strip</span></p><p><b>subject</b>: <a href="Patient-MarinaRubella.html">Marina Rubella (official) Female, DoB: 1992-08-08 ( urn:oid:2.16.756.5.30.1.123.100.1.1.1#80756011110123400005)</a></p><p><b>requester</b>: <a href="PractitionerRole-PeterPapGruppenpraxis.html">PractitionerRole</a></p><p><b>reasonCode</b>: <span title="Codes:{http://snomed.info/sct 702601001}">Routine gynecologic examination (procedure)</span></p><p><b>specimen</b>: <a href="Specimen-Urine-gyn.html">Specimen: identifier = 11111-15394-75465; accessionIdentifier = 22222-bc987-dd888; status = available; type = Urine sample; receivedTime = 2023-12-01 16:40:17+0000</a></p></div>
        </text>
        <identifier>
          <type>
            <coding>
              <system value="http://terminology.hl7.org/CodeSystem/v2-0203"/>
              <code value="PLAC"/>
              <display value="Placer Identifier"/>
            </coding>
          </type>
          <system value="urn:oid:2.16.756.5.30.1.123.100.2.1.1"/>
          <value value="Y274589"/>
        </identifier>
        <status value="active"/>
        <intent value="original-order"/>
        <priority value="routine"/>
        <code>
          <coding>
            <system value="http://loinc.org"/>
            <code value="50556-0"/>
            <display value="Urinalysis dipstick panel - Urine by Automated test strip"/>
          </coding>
        </code>
        <subject>
          <reference value="Patient/MarinaRubella"/>
        </subject>
        <requester>
          <reference value="PractitionerRole/PeterPapGruppenpraxis"/>
        </requester>
        <reasonCode>
          <coding>
            <system value="http://snomed.info/sct"/>
            <code value="702601001"/>
          </coding>
          <text value="Routine gynecologic examination (procedure)"/>
        </reasonCode>
        <specimen>
          <reference value="Specimen/Urine-gyn"/>
        </specimen>
      </ServiceRequest>
    </resource>
  </entry>
  <entry>
    <fullUrl value="http://example.com/fhir/ServiceRequest/3-gyn-service-request-obstetric-panel"/>
    <resource>
      <ServiceRequest>
        <id value="3-gyn-service-request-obstetric-panel"/>
        <meta>
          <profile value="http://fhir.ch/ig/ch-lab-order/StructureDefinition/ch-lab-order-SR"/>
        </meta>
        <text>
          <status value="generated"/><div xmlns="http://www.w3.org/1999/xhtml"><a name="ServiceRequest_3-gyn-service-request-obstetric-panel"> </a><p class="res-header-id"><b>Generated Narrative: ServiceRequest 3-gyn-service-request-obstetric-panel</b></p><a name="3-gyn-service-request-obstetric-panel"> </a><a name="hc3-gyn-service-request-obstetric-panel"> </a><a name="3-gyn-service-request-obstetric-panel-en-US"> </a><div style="display: inline-block; background-color: #d9e0e7; padding: 6px; margin: 4px; border: 1px solid #8da1b4; border-radius: 5px; line-height: 60%"><p style="margin-bottom: 0px"/><p style="margin-bottom: 0px">Profile: <a href="StructureDefinition-ch-lab-order-SR.html">CH LAB-Order-SR</a></p></div><p><b>identifier</b>: Placer Identifier/Y274589</p><p><b>status</b>: Active</p><p><b>intent</b>: Original Order</p><p><b>priority</b>: Routine</p><p><b>code</b>: <span title="Codes:{http://loinc.org 24364-2}">Obstetric 1996 Pnl Ser+Bld</span></p><p><b>subject</b>: <a href="Patient-MarinaRubella.html">Marina Rubella (official) Female, DoB: 1992-08-08 ( urn:oid:2.16.756.5.30.1.123.100.1.1.1#80756011110123400005)</a></p><p><b>requester</b>: <a href="PractitionerRole-PeterPapGruppenpraxis.html">PractitionerRole</a></p><p><b>reasonCode</b>: <span title="Codes:{http://snomed.info/sct 702601001}">Routine gynecologic examination (procedure)</span></p><p><b>specimen</b>: </p><ul><li><a href="Specimen-Blood-gyn.html">Specimen: status = available; type = Blood sample; note = Specimen is grossly lipemic</a></li><li><a href="Specimen-Serum-gyn.html">Specimen: identifier = 48736-12345-75465; accessionIdentifier = 4e88a-12345-dd888; status = available; type = Serum specimen (specimen)</a></li></ul></div>
        </text>
        <identifier>
          <type>
            <coding>
              <system value="http://terminology.hl7.org/CodeSystem/v2-0203"/>
              <code value="PLAC"/>
              <display value="Placer Identifier"/>
            </coding>
          </type>
          <system value="urn:oid:2.16.756.5.30.1.123.100.2.1.1"/>
          <value value="Y274589"/>
        </identifier>
        <status value="active"/>
        <intent value="original-order"/>
        <priority value="routine"/>
        <code>
          <coding>
            <system value="http://loinc.org"/>
            <code value="24364-2"/>
            <display value="Obstetric 1996 Pnl Ser+Bld"/>
          </coding>
        </code>
        <subject>
          <reference value="Patient/MarinaRubella"/>
        </subject>
        <requester>
          <reference value="PractitionerRole/PeterPapGruppenpraxis"/>
        </requester>
        <reasonCode>
          <coding>
            <system value="http://snomed.info/sct"/>
            <code value="702601001"/>
          </coding>
          <text value="Routine gynecologic examination (procedure)"/>
        </reasonCode>
        <specimen>
          <reference value="Specimen/Blood-gyn"/>
        </specimen>
        <specimen>
          <reference value="Specimen/Serum-gyn"/>
        </specimen>
      </ServiceRequest>
    </resource>
  </entry>
</Bundle>