<?xml version="1.0" encoding="UTF-8"?>

<Bundle xmlns="http://hl7.org/fhir">
  <id value="4-sepsis-document-with-sr"/>
  <meta>
    <versionId value="1"/>
    <lastUpdated value="2019-04-01T20:18:41.341+00:00"/>
    <profile value="http://fhir.ch/ig/ch-lab-order/StructureDefinition/ch-lab-order-document-with-sr"/>
  </meta>
  <identifier>
    <system value="urn:ietf:rfc:3986"/>
    <value value="urn:uuid:26d3dff7-ab05-4737-a49c-5eccd33595f8"/>
  </identifier>
  <type value="document"/>
  <timestamp value="2019-04-01T20:18:41.341+00:00"/>
  <entry>
    <fullUrl value="http://example.com/fhir/Composition/4-sepsis-with-sr"/>
    <resource>
      <Composition>
        <id value="4-sepsis-with-sr"/>
        <meta>
          <versionId value="1"/>
          <lastUpdated value="2021-02-18T17:04:38.520+00:00"/>
          <profile value="http://fhir.ch/ig/ch-lab-order/StructureDefinition/ch-lab-order-composition-with-sr"/>
        </meta>
        <text>
          <status value="additional"/><div xmlns="http://www.w3.org/1999/xhtml"><div>Laboratory Order</div><div><h3>Case study 4: Suspected sepsis</h3><p>The patient Sara Speckmann, born 12. 12. 1975, has been in the Cantonal Hospital for some time. Last night her general condition deteriorated massively. As there is a suspicion of sepsis, the senior physician in charge, Dr Hans Hauser, orders Blood to be taken from her in the morning for a Blood culture. 30 minutes later, another aerobic and an anaerobic Blood culture is taken, as well as a urine sample. All five samples are further processed in the external laboratory Pipette. There, germs are detected in all materials and then identified by mass spectrometry. The pathogens “Klebsiella pneumoniae” and “Escherichia coli” were detected in the four Blood culture bottles, and the bacterium “Streptococcus mitis” was also detected in one aerobic bottle. The germ identified in the urine sample is normally not pathogenic. An antibiogram is made of all three pathogens detected in the Blood. This shows that the two active substances “amoxicillin+clavulanic acid” and “ceftriaxone” are effective against all three germs. The microbiologist regularly informs Dr Hans Hauser about the various partial results.</p></div></div>
        </text>
        <extension url="http://fhir.ch/ig/ch-core/StructureDefinition/ch-ext-epr-dataenterer">
          <extension url="enterer">
            <valueReference>
              <reference value="PractitionerRole/HansHauserKantonsspital"/>
            </valueReference>
          </extension>
        </extension>
        <extension url="http://fhir.ch/ig/ch-orf/StructureDefinition/ch-orf-urgentnoficationcontactforthisdocument">
          <valueReference>
            <reference value="PractitionerRole/EvaErlenmeyerLaborPipette"/>
          </valueReference>
        </extension>
        <extension url="http://fhir.ch/ig/ch-orf/StructureDefinition/ch-orf-urgentnoficationcontactfortheresponsetothisdocument">
          <valueReference>
            <reference value="PractitionerRole/HansHauserKantonsspital"/>
          </valueReference>
        </extension>
        <extension url="http://fhir.ch/ig/ch-orf/StructureDefinition/ch-orf-receiver">
          <valueReference>
            <reference value="PractitionerRole/EvaErlenmeyerLaborPipette"/>
          </valueReference>
        </extension>
        <extension url="http://fhir.ch/ig/ch-orf/StructureDefinition/ch-orf-copyreceiver">
          <valueReference>
            <reference value="PractitionerRole/MarcMustermannGruppenpraxis"/>
          </valueReference>
        </extension>
        <extension url="http://fhir.ch/ig/ch-orf/StructureDefinition/ch-orf-copyreceiver">
          <valueReference>
            <reference value="Patient/SaraSpeckmann"/>
          </valueReference>
        </extension>
        <status value="final"/>
        <type>
          <coding>
            <system value="http://snomed.info/sct"/>
            <code value="721965002"/>
            <display value="Laboratory order (record artifact)"/>
          </coding>
        </type>
        <category>
          <coding>
            <system value="http://snomed.info/sct"/>
            <code value="721963009"/>
            <display value="Order (record artifact)"/>
          </coding>
        </category>
        <subject>
          <reference value="Patient/SaraSpeckmann"/>
        </subject>
        <date value="2025-03-05T11:46:09+02:00"/>
        <author>
          <reference value="PractitionerRole/HansHauserKantonsspital"/>
        </author>
        <title value="Laboratory Order 4-sepsis"/>
        <section>
          <title value="Laboratory Order with Service Request 4-sepsis"/>
          <code>
            <coding>
              <system value="http://snomed.info/sct"/>
              <code value="721963009"/>
              <display value="Order (record artifact)"/>
            </coding>
          </code>
          <text>
            <status value="generated"/><div xmlns="http://www.w3.org/1999/xhtml">Laboratory Order with Service Request 4-sepsis</div>
          </text>
          <entry>
            <reference value="ServiceRequest/4-sepsis-ServiceRequest"/>
          </entry>
          <entry>
            <reference value="ServiceRequest/4-sepsis-ServiceRequestHbHt"/>
          </entry>
          <entry>
            <reference value="ServiceRequest/4-sepsis-ServiceRequestCBCDiff"/>
          </entry>
          <entry>
            <reference value="ServiceRequest/4-sepsis-ServiceRequestCRP"/>
          </entry>
          <entry>
            <reference value="ServiceRequest/4-sepsis-ServiceRequestGrowth"/>
          </entry>
        </section>
      </Composition>
    </resource>
  </entry>
  <entry>
    <fullUrl value="http://example.com/fhir/Patient/SaraSpeckmann"/>
    <resource>
      <Patient>
        <id value="SaraSpeckmann"/>
        <meta>
          <profile value="http://fhir.ch/ig/ch-core/StructureDefinition/ch-core-patient"/>
        </meta>
        <text>
          <status value="additional"/><div xmlns="http://www.w3.org/1999/xhtml"><p><b>id</b>: SaraSpeckmann</p><p><b>meta</b>:</p><p><b>identifier</b>: 80756011110123400006</p><p><b>name</b>: Sara Speckmann</p><p><b>gender</b>: FEMALE</p><p><b>birthDate</b>: Dec 12, 1975</p><p><b>maritalStatus</b>: verheiratet <span style="background: LightGoldenRodYellow">(Details : {$ech-11-maritalstatus code '2' = '2', given as 'verheiratet'})</span></p><h3>Communications</h3><table class="grid"><tr><td>-</td><td><b>Language</b></td><td><b>Preferred</b></td></tr><tr><td>*</td><td>Deutsch (Schweiz) <span style="background: LightGoldenRodYellow">(Details : {urn:ietf:bcp:47 code 'de-CH' = 'German (Region=Schweiz))</span></td><td>true</td></tr></table></div>
        </text>
        <extension url="http://hl7.org/fhir/StructureDefinition/patient-birthPlace">
          <valueAddress>
            <city value="Aarau"/>
            <country value="Schweiz"/>
          </valueAddress>
        </extension>
        <extension url="http://fhir.ch/ig/ch-core/StructureDefinition/ch-core-patient-ech-11-placeoforigin">
          <valueAddress>
            <city value="Lenzburg"/>
            <state value="AG"/>
          </valueAddress>
        </extension>
        <extension url="http://hl7.org/fhir/StructureDefinition/patient-religion">
          <valueCodeableConcept>
            <coding>
              <system value="http://terminology.hl7.org/CodeSystem/v3-ReligiousAffiliation"/>
              <code value="1025"/>
              <display value="Jehovah's Witnesses"/>
            </coding>
          </valueCodeableConcept>
        </extension>
        <identifier>
          <system value="urn:oid:2.16.756.5.30.1.123.100.1.1.1"/>
          <value value="80756011110123400006"/>
        </identifier>
        <name>
          <family value="Speckmann"/>
          <given value="Sara"/>
        </name>
        <telecom>
          <system value="phone"/>
          <value value="+41 64 888 45 67"/>
          <use value="home"/>
        </telecom>
        <telecom>
          <system value="email"/>
          <value value="sara.speckmann@example.ch"/>
        </telecom>
        <gender value="female"/>
        <birthDate value="1975-12-12"/>
        <maritalStatus>
          <coding>
            <system value="http://fhir.ch/ig/ch-core/CodeSystem/ech-11-maritalstatus"/>
            <code value="2"/>
            <display value="verheiratet"/>
          </coding>
        </maritalStatus>
        <communication>
          <language>
            <coding>
              <system value="urn:ietf:bcp:47"/>
              <code value="de-CH"/>
            </coding>
            <text value="Deutsch (Schweiz)"/>
          </language>
          <preferred value="true"/>
        </communication>
      </Patient>
    </resource>
  </entry>
  <entry>
    <fullUrl value="http://example.com/fhir/Practitioner/HansHauser"/>
    <resource>
      <Practitioner>
        <id value="HansHauser"/>
        <meta>
          <profile value="http://fhir.ch/ig/ch-core/StructureDefinition/ch-core-practitioner"/>
        </meta>
        <text>
          <status value="generated"/><div xmlns="http://www.w3.org/1999/xhtml"><a name="Practitioner_HansHauser"> </a><p class="res-header-id"><b>Generated Narrative: Practitioner HansHauser</b></p><a name="HansHauser"> </a><a name="hcHansHauser"> </a><a name="HansHauser-en-US"> </a><div style="display: inline-block; background-color: #d9e0e7; padding: 6px; margin: 4px; border: 1px solid #8da1b4; border-radius: 5px; line-height: 60%"><p style="margin-bottom: 0px"/><p style="margin-bottom: 0px">Profile: <a href="http://fhir.ch/ig/ch-core/6.0.0-ballot/StructureDefinition-ch-core-practitioner.html">CH Core Practitioner</a></p></div><p><b>identifier</b>: <a href="https://www.gs1.org/standards/id-keys/gln" title="Global Location Number">GLN</a>/7601000050700, <code>urn:oid:2.16.756.5.30.1.123.100.2.1.1</code>/L248519</p><p><b>name</b>: Hans Hauser (Official)</p><p><b>telecom</b>: ph: 038 888 22 11(Work), <a href="mailto:hans.hauser@gruppenpraxis.ch">hans.hauser@gruppenpraxis.ch</a></p></div>
        </text>
        <identifier>
          <system value="urn:oid:2.51.1.3"/>
          <value value="7601000050700"/>
        </identifier>
        <identifier>
          <system value="urn:oid:2.16.756.5.30.1.123.100.2.1.1"/>
          <value value="L248519"/>
        </identifier>
        <name>
          <use value="official"/>
          <family value="Hauser"/>
          <given value="Hans"/>
          <prefix value="Dr. med.">
            <extension url="http://hl7.org/fhir/StructureDefinition/iso21090-EN-qualifier">
              <valueCode value="AC"/>
            </extension>
          </prefix>
        </name>
        <telecom>
          <system value="phone"/>
          <value value="038 888 22 11"/>
          <use value="work"/>
        </telecom>
        <telecom>
          <system value="email"/>
          <value value="hans.hauser@gruppenpraxis.ch"/>
          <use value="work"/>
        </telecom>
      </Practitioner>
    </resource>
  </entry>
  <entry>
    <fullUrl value="http://example.com/fhir/Organization/Kantonsspital"/>
    <resource>
      <Organization>
        <id value="Kantonsspital"/>
        <meta>
          <profile value="http://fhir.ch/ig/ch-core/StructureDefinition/ch-core-organization"/>
        </meta>
        <text>
          <status value="generated"/><div xmlns="http://www.w3.org/1999/xhtml"><a name="Organization_Kantonsspital"> </a><p class="res-header-id"><b>Generated Narrative: Organization Kantonsspital</b></p><a name="Kantonsspital"> </a><a name="hcKantonsspital"> </a><a name="Kantonsspital-en-US"> </a><div style="display: inline-block; background-color: #d9e0e7; padding: 6px; margin: 4px; border: 1px solid #8da1b4; border-radius: 5px; line-height: 60%"><p style="margin-bottom: 0px"/><p style="margin-bottom: 0px">Profile: <a href="http://fhir.ch/ig/ch-core/6.0.0-ballot/StructureDefinition-ch-core-organization.html">CH Core Organization</a></p></div><p><b>identifier</b>: <a href="https://www.gs1.org/standards/id-keys/gln" title="Global Location Number">GLN</a>/7601000235503</p><p><b>name</b>: Kantonsspital Zug</p><p><b>telecom</b>: <a href="tel:+41453345566">+41 45 334 55 66</a>, <a href="mailto:info@kantonsspital.zug.ch">info@kantonsspital.zug.ch</a>, <a href="http://www.kanstonsspital.zug.ch">http://www.kanstonsspital.zug.ch</a></p><p><b>address</b>: Seestrasse 14 Postfach 14 Zug 8000 Schweiz (work)</p></div>
        </text>
        <identifier>
          <system value="urn:oid:2.51.1.3"/>
          <value value="7601000235503"/>
        </identifier>
        <name value="Kantonsspital Zug"/>
        <telecom>
          <system value="phone"/>
          <value value="+41 45 334 55 66"/>
          <use value="work"/>
        </telecom>
        <telecom>
          <system value="email"/>
          <value value="info@kantonsspital.zug.ch"/>
          <use value="work"/>
        </telecom>
        <telecom>
          <system value="url"/>
          <value value="http://www.kanstonsspital.zug.ch"/>
          <use value="work"/>
        </telecom>
        <address>
          <use value="work"/>
          <line value="Seestrasse 14"/>
          <line value="Postfach 14"/>
          <city value="Zug"/>
          <postalCode value="8000"/>
          <country value="Schweiz"/>
        </address>
      </Organization>
    </resource>
  </entry>
  <entry>
    <fullUrl value="http://example.com/fhir/PractitionerRole/HansHauserKantonsspital"/>
    <resource>
      <PractitionerRole>
        <id value="HansHauserKantonsspital"/>
        <meta>
          <profile value="http://fhir.ch/ig/ch-core/StructureDefinition/ch-core-practitionerrole"/>
        </meta>
        <text>
          <status value="generated"/><div xmlns="http://www.w3.org/1999/xhtml"><a name="PractitionerRole_HansHauserKantonsspital"> </a><p class="res-header-id"><b>Generated Narrative: PractitionerRole HansHauserKantonsspital</b></p><a name="HansHauserKantonsspital"> </a><a name="hcHansHauserKantonsspital"> </a><a name="HansHauserKantonsspital-en-US"> </a><div style="display: inline-block; background-color: #d9e0e7; padding: 6px; margin: 4px; border: 1px solid #8da1b4; border-radius: 5px; line-height: 60%"><p style="margin-bottom: 0px"/><p style="margin-bottom: 0px">Profile: <a href="http://fhir.ch/ig/ch-core/6.0.0-ballot/StructureDefinition-ch-core-practitionerrole.html">CH Core PractitionerRole</a></p></div><p><b>practitioner</b>: <a href="Practitioner-HansHauser.html">Practitioner Hans Hauser (official)</a></p><p><b>organization</b>: <a href="Organization-Kantonsspital.html">Organization Kantonsspital Zug</a></p></div>
        </text>
        <practitioner>
          <reference value="Practitioner/HansHauser"/>
        </practitioner>
        <organization>
          <reference value="Organization/Kantonsspital"/>
        </organization>
      </PractitionerRole>
    </resource>
  </entry>
  <entry>
    <fullUrl value="http://example.com/fhir/Practitioner/MarcMustermann"/>
    <resource>
      <Practitioner>
        <id value="MarcMustermann"/>
        <meta>
          <profile value="http://fhir.ch/ig/ch-core/StructureDefinition/ch-core-practitioner"/>
        </meta>
        <text>
          <status value="generated"/><div xmlns="http://www.w3.org/1999/xhtml"><a name="Practitioner_MarcMustermann"> </a><p class="res-header-id"><b>Generated Narrative: Practitioner MarcMustermann</b></p><a name="MarcMustermann"> </a><a name="hcMarcMustermann"> </a><a name="MarcMustermann-en-US"> </a><div style="display: inline-block; background-color: #d9e0e7; padding: 6px; margin: 4px; border: 1px solid #8da1b4; border-radius: 5px; line-height: 60%"><p style="margin-bottom: 0px"/><p style="margin-bottom: 0px">Profile: <a href="http://fhir.ch/ig/ch-core/6.0.0-ballot/StructureDefinition-ch-core-practitioner.html">CH Core Practitioner</a></p></div><p><b>identifier</b>: <a href="https://www.gs1.org/standards/id-keys/gln" title="Global Location Number">GLN</a>/7601000050700, <code>urn:oid:2.16.756.5.30.1.123.100.2.1.1</code>/L248519</p><p><b>name</b>: Marc Mustermann (Official)</p><p><b>telecom</b>: ph: 033 444 22 11(Work), <a href="mailto:marc.mustermann@gruppenpraxis.ch">marc.mustermann@gruppenpraxis.ch</a></p></div>
        </text>
        <identifier>
          <system value="urn:oid:2.51.1.3"/>
          <value value="7601000050700"/>
        </identifier>
        <identifier>
          <system value="urn:oid:2.16.756.5.30.1.123.100.2.1.1"/>
          <value value="L248519"/>
        </identifier>
        <name>
          <use value="official"/>
          <family value="Mustermann"/>
          <given value="Marc"/>
          <prefix value="Dr. med.">
            <extension url="http://hl7.org/fhir/StructureDefinition/iso21090-EN-qualifier">
              <valueCode value="AC"/>
            </extension>
          </prefix>
        </name>
        <telecom>
          <system value="phone"/>
          <value value="033 444 22 11"/>
          <use value="work"/>
        </telecom>
        <telecom>
          <system value="email"/>
          <value value="marc.mustermann@gruppenpraxis.ch"/>
          <use value="work"/>
        </telecom>
      </Practitioner>
    </resource>
  </entry>
  <entry>
    <fullUrl value="http://example.com/fhir/Organization/Gruppenpraxis"/>
    <resource>
      <Organization>
        <id value="Gruppenpraxis"/>
        <meta>
          <profile value="http://fhir.ch/ig/ch-core/StructureDefinition/ch-core-organization-epr"/>
        </meta>
        <text>
          <status value="generated"/><div xmlns="http://www.w3.org/1999/xhtml"><a name="Organization_Gruppenpraxis"> </a><p class="res-header-id"><b>Generated Narrative: Organization Gruppenpraxis</b></p><a name="Gruppenpraxis"> </a><a name="hcGruppenpraxis"> </a><a name="Gruppenpraxis-en-US"> </a><div style="display: inline-block; background-color: #d9e0e7; padding: 6px; margin: 4px; border: 1px solid #8da1b4; border-radius: 5px; line-height: 60%"><p style="margin-bottom: 0px"/><p style="margin-bottom: 0px">Profile: <a href="http://fhir.ch/ig/ch-core/6.0.0-ballot/StructureDefinition-ch-core-organization-epr.html">CH Core Organization EPR</a></p></div><p><b>identifier</b>: <a href="https://www.gs1.org/standards/id-keys/gln" title="Global Location Number">GLN</a>/7601000241115</p><p><b>name</b>: Gruppenpraxis Olten</p><p><b>telecom</b>: <a href="tel:+41555556677">+41555556677</a>, <a href="mailto:info@gruppenpraxis.ch">info@gruppenpraxis.ch</a>, <a href="http://www.gruppenpraxis.ch">http://www.gruppenpraxis.ch</a></p><p><b>address</b>: Gerbergasse 12 Olten 4600 CH </p></div>
        </text>
        <identifier>
          <system value="urn:oid:2.51.1.3"/>
          <value value="7601000241115"/>
        </identifier>
        <name value="Gruppenpraxis Olten"/>
        <telecom>
          <system value="phone"/>
          <value value="+41555556677"/>
          <use value="work"/>
        </telecom>
        <telecom>
          <system value="email"/>
          <value value="info@gruppenpraxis.ch"/>
          <use value="work"/>
        </telecom>
        <telecom>
          <system value="url"/>
          <value value="http://www.gruppenpraxis.ch"/>
          <use value="work"/>
        </telecom>
        <address>
          <line value="Gerbergasse 12"/>
          <city value="Olten"/>
          <postalCode value="4600"/>
          <country value="CH"/>
        </address>
      </Organization>
    </resource>
  </entry>
  <entry>
    <fullUrl value="http://example.com/fhir/PractitionerRole/MarcMustermannGruppenpraxis"/>
    <resource>
      <PractitionerRole>
        <id value="MarcMustermannGruppenpraxis"/>
        <meta>
          <profile value="http://fhir.ch/ig/ch-core/StructureDefinition/ch-core-practitionerrole"/>
        </meta>
        <text>
          <status value="generated"/><div xmlns="http://www.w3.org/1999/xhtml"><a name="PractitionerRole_MarcMustermannGruppenpraxis"> </a><p class="res-header-id"><b>Generated Narrative: PractitionerRole MarcMustermannGruppenpraxis</b></p><a name="MarcMustermannGruppenpraxis"> </a><a name="hcMarcMustermannGruppenpraxis"> </a><a name="MarcMustermannGruppenpraxis-en-US"> </a><div style="display: inline-block; background-color: #d9e0e7; padding: 6px; margin: 4px; border: 1px solid #8da1b4; border-radius: 5px; line-height: 60%"><p style="margin-bottom: 0px"/><p style="margin-bottom: 0px">Profile: <a href="http://fhir.ch/ig/ch-core/6.0.0-ballot/StructureDefinition-ch-core-practitionerrole.html">CH Core PractitionerRole</a></p></div><p><b>practitioner</b>: <a href="Practitioner-MarcMustermann.html">Practitioner Marc Mustermann (official)</a></p><p><b>organization</b>: <a href="Organization-Gruppenpraxis.html">Organization Gruppenpraxis Olten</a></p></div>
        </text>
        <practitioner>
          <reference value="Practitioner/MarcMustermann"/>
        </practitioner>
        <organization>
          <reference value="Organization/Gruppenpraxis"/>
        </organization>
      </PractitionerRole>
    </resource>
  </entry>
  <entry>
    <fullUrl value="http://example.com/fhir/Practitioner/EvaErlenmeyer"/>
    <resource>
      <Practitioner>
        <id value="EvaErlenmeyer"/>
        <meta>
          <profile value="http://fhir.ch/ig/ch-core/StructureDefinition/ch-core-practitioner"/>
        </meta>
        <text>
          <status value="generated"/><div xmlns="http://www.w3.org/1999/xhtml"><a name="Practitioner_EvaErlenmeyer"> </a><p class="res-header-id"><b>Generated Narrative: Practitioner EvaErlenmeyer</b></p><a name="EvaErlenmeyer"> </a><a name="hcEvaErlenmeyer"> </a><a name="EvaErlenmeyer-en-US"> </a><div style="display: inline-block; background-color: #d9e0e7; padding: 6px; margin: 4px; border: 1px solid #8da1b4; border-radius: 5px; line-height: 60%"><p style="margin-bottom: 0px"/><p style="margin-bottom: 0px">Profile: <a href="http://fhir.ch/ig/ch-core/6.0.0-ballot/StructureDefinition-ch-core-practitioner.html">CH Core Practitioner</a></p></div><p><b>identifier</b>: <a href="https://www.gs1.org/standards/id-keys/gln" title="Global Location Number">GLN</a>/7601000050717, <code>urn:oid:2.16.756.5.30.1.123.100.2.1.1</code>/Y274589</p><p><b>name</b>: Eva Erlenmeyer (Official)</p><p><b>telecom</b>: ph: 033 444 55 66(Work), <a href="mailto:eva.erlenmeyer@labor-pipette.ch">eva.erlenmeyer@labor-pipette.ch</a></p></div>
        </text>
        <identifier>
          <system value="urn:oid:2.51.1.3"/>
          <value value="7601000050717"/>
        </identifier>
        <identifier>
          <system value="urn:oid:2.16.756.5.30.1.123.100.2.1.1"/>
          <value value="Y274589"/>
        </identifier>
        <name>
          <use value="official"/>
          <family value="Erlenmeyer"/>
          <given value="Eva"/>
          <prefix value="Dr. med.">
            <extension url="http://hl7.org/fhir/StructureDefinition/iso21090-EN-qualifier">
              <valueCode value="AC"/>
            </extension>
          </prefix>
        </name>
        <telecom>
          <system value="phone"/>
          <value value="033 444 55 66"/>
          <use value="work"/>
        </telecom>
        <telecom>
          <system value="email"/>
          <value value="eva.erlenmeyer@labor-pipette.ch"/>
          <use value="work"/>
        </telecom>
      </Practitioner>
    </resource>
  </entry>
  <entry>
    <fullUrl value="http://example.com/fhir/Organization/LaborPipette"/>
    <resource>
      <Organization>
        <id value="LaborPipette"/>
        <meta>
          <profile value="http://fhir.ch/ig/ch-core/StructureDefinition/ch-core-organization"/>
        </meta>
        <text>
          <status value="generated"/><div xmlns="http://www.w3.org/1999/xhtml"><a name="Organization_LaborPipette"> </a><p class="res-header-id"><b>Generated Narrative: Organization LaborPipette</b></p><a name="LaborPipette"> </a><a name="hcLaborPipette"> </a><a name="LaborPipette-en-US"> </a><div style="display: inline-block; background-color: #d9e0e7; padding: 6px; margin: 4px; border: 1px solid #8da1b4; border-radius: 5px; line-height: 60%"><p style="margin-bottom: 0px"/><p style="margin-bottom: 0px">Profile: <a href="http://fhir.ch/ig/ch-core/6.0.0-ballot/StructureDefinition-ch-core-organization.html">CH Core Organization</a></p></div><p><b>identifier</b>: <a href="https://www.gs1.org/standards/id-keys/gln" title="Global Location Number">GLN</a>/7601000234407</p><p><b>name</b>: Labor Pipette</p><p><b>telecom</b>: <a href="tel:+41223345566">+41223345566</a>, <a href="mailto:info@labor-pipette.ch">info@labor-pipette.ch</a>, <a href="http://www.labor-pipette.ch">http://www.labor-pipette.ch</a></p><p><b>address</b>: Laborstrasse 23 Olten 4600 CH </p></div>
        </text>
        <identifier>
          <system value="urn:oid:2.51.1.3"/>
          <value value="7601000234407"/>
        </identifier>
        <name value="Labor Pipette"/>
        <telecom>
          <system value="phone"/>
          <value value="+41223345566"/>
          <use value="work"/>
        </telecom>
        <telecom>
          <system value="email"/>
          <value value="info@labor-pipette.ch"/>
          <use value="work"/>
        </telecom>
        <telecom>
          <system value="url"/>
          <value value="http://www.labor-pipette.ch"/>
          <use value="work"/>
        </telecom>
        <address>
          <line value="Laborstrasse 23"/>
          <city value="Olten"/>
          <postalCode value="4600"/>
          <country value="CH"/>
        </address>
      </Organization>
    </resource>
  </entry>
  <entry>
    <fullUrl value="http://example.com/fhir/PractitionerRole/EvaErlenmeyerLaborPipette"/>
    <resource>
      <PractitionerRole>
        <id value="EvaErlenmeyerLaborPipette"/>
        <meta>
          <profile value="http://fhir.ch/ig/ch-core/StructureDefinition/ch-core-practitionerrole"/>
        </meta>
        <text>
          <status value="generated"/><div xmlns="http://www.w3.org/1999/xhtml"><a name="PractitionerRole_EvaErlenmeyerLaborPipette"> </a><p class="res-header-id"><b>Generated Narrative: PractitionerRole EvaErlenmeyerLaborPipette</b></p><a name="EvaErlenmeyerLaborPipette"> </a><a name="hcEvaErlenmeyerLaborPipette"> </a><a name="EvaErlenmeyerLaborPipette-en-US"> </a><div style="display: inline-block; background-color: #d9e0e7; padding: 6px; margin: 4px; border: 1px solid #8da1b4; border-radius: 5px; line-height: 60%"><p style="margin-bottom: 0px"/><p style="margin-bottom: 0px">Profile: <a href="http://fhir.ch/ig/ch-core/6.0.0-ballot/StructureDefinition-ch-core-practitionerrole.html">CH Core PractitionerRole</a></p></div><p><b>identifier</b>: <code>urn:oid:2.16.756.5.30.1.123.100.2.1.1</code>/K333333</p><p><b>practitioner</b>: <a href="Practitioner-EvaErlenmeyer.html">Practitioner Eva Erlenmeyer (official)</a></p><p><b>organization</b>: <a href="Organization-LaborPipette.html">Organization Labor Pipette</a></p></div>
        </text>
        <identifier>
          <system value="urn:oid:2.16.756.5.30.1.123.100.2.1.1"/>
          <value value="K333333"/>
        </identifier>
        <practitioner>
          <reference value="Practitioner/EvaErlenmeyer"/>
        </practitioner>
        <organization>
          <reference value="Organization/LaborPipette"/>
        </organization>
      </PractitionerRole>
    </resource>
  </entry>
  <entry>
    <fullUrl value="http://example.com/fhir/Specimen/Blood-bactec-plus-4-sepsis"/>
    <resource>
      <Specimen>
        <id value="Blood-bactec-plus-4-sepsis"/>
        <text>
          <status value="generated"/><div xmlns="http://www.w3.org/1999/xhtml"><a name="Specimen_Blood-bactec-plus-4-sepsis"> </a><p class="res-header-id"><b>Generated Narrative: Specimen Blood-bactec-plus-4-sepsis</b></p><a name="Blood-bactec-plus-4-sepsis"> </a><a name="hcBlood-bactec-plus-4-sepsis"> </a><a name="Blood-bactec-plus-4-sepsis-en-US"> </a><p><b>status</b>: Available</p><p><b>type</b>: <span title="Codes:{http://snomed.info/sct 119297000}">Blood sample</span></p><p><b>subject</b>: <a href="Patient-SaraSpeckmann.html">Sara Speckmann  Female, DoB: 1975-12-12 ( urn:oid:2.16.756.5.30.1.123.100.1.1.1#80756011110123400006)</a></p><p><b>request</b>: <a href="ServiceRequest-4-sepsis-ServiceRequest.html">ServiceRequest: identifier = Placer Identifier: Y274589; status = active; intent = original-order; priority = urgent; reasonCode = Sepsis screening</a></p><h3>Collections</h3><table class="grid"><tr><td style="display: none">-</td><td><b>Collector</b></td><td><b>Collected[x]</b></td><td><b>BodySite</b></td></tr><tr><td style="display: none">*</td><td><a href="Practitioner-HansHauser.html">Practitioner Hans Hauser (official)</a></td><td>2025-03-16 06:20:17+0000 --&gt; 2025-03-16 06:50:17+0000</td><td><span title="Codes:{http://snomed.info/sct 721029009}">Structure of superficial vein of left upper limb (body structure)</span></td></tr></table><blockquote><p><b>container</b></p><p><b>identifier</b>: 95ab0fb1-6d1c-40f0-9aaa-a68f29238a4e-bactec-plus</p><p><b>description</b>: Two BACTEC™ PLUS Aerobic/F Culture Vial, cap color: grey-blue</p><p><b>type</b>: <span title="Codes:{http://snomed.info/sct 767385003}">Aerobic blood culture bottle (physical object)</span></p></blockquote><blockquote><p><b>container</b></p><p><b>identifier</b>: 92af0fee-1aeb-472e-8b57-a885ba33b745-bactec-plus</p><p><b>description</b>: Two BACTEC™ PLUS Anaerobic/F Culture Vial, cap color: purple</p><p><b>type</b>: <span title="Codes:{http://snomed.info/sct 767383005}">Anaerobic blood culture bottle (physical object)</span></p></blockquote><p><b>note</b>: Each container type contains two blood samples taken 30 minutes apart, so we get 4 vials in total</p></div>
        </text>
        <status value="available"/>
        <type>
          <coding>
            <system value="http://snomed.info/sct"/>
            <code value="119297000"/>
            <display value="Blood sample"/>
          </coding>
        </type>
        <subject>
          <reference value="Patient/SaraSpeckmann"/>
        </subject>
        <request>
          <reference value="ServiceRequest/4-sepsis-ServiceRequest"/>
        </request>
        <collection>
          <collector>
            <reference value="Practitioner/HansHauser"/>
          </collector>
          <collectedPeriod>
            <start value="2025-03-16T06:20:17Z"/>
            <end value="2025-03-16T06:50:17Z"/>
          </collectedPeriod>
          <bodySite>
            <coding>
              <system value="http://snomed.info/sct"/>
              <code value="721029009"/>
              <display value="Structure of superficial vein of left upper limb (body structure)"/>
            </coding>
          </bodySite>
        </collection>
        <container>
          <identifier>
            <value value="95ab0fb1-6d1c-40f0-9aaa-a68f29238a4e-bactec-plus"/>
          </identifier>
          <description value="Two BACTEC™ PLUS Aerobic/F Culture Vial, cap color: grey-blue"/>
          <type>
            <coding>
              <system value="http://snomed.info/sct"/>
              <code value="767385003"/>
              <display value="Aerobic blood culture bottle (physical object)"/>
            </coding>
          </type>
        </container>
        <container>
          <identifier>
            <value value="92af0fee-1aeb-472e-8b57-a885ba33b745-bactec-plus"/>
          </identifier>
          <description value="Two BACTEC™ PLUS Anaerobic/F Culture Vial, cap color: purple"/>
          <type>
            <coding>
              <system value="http://snomed.info/sct"/>
              <code value="767383005"/>
              <display value="Anaerobic blood culture bottle (physical object)"/>
            </coding>
          </type>
        </container>
        <note>
          <text value="Each container type contains two blood samples taken 30 minutes apart, so we get 4 vials in total"/>
        </note>
      </Specimen>
    </resource>
  </entry>
  <entry>
    <fullUrl value="http://example.com/fhir/Specimen/Blood-4-sepsis"/>
    <resource>
      <Specimen>
        <id value="Blood-4-sepsis"/>
        <text>
          <status value="generated"/><div xmlns="http://www.w3.org/1999/xhtml"><a name="Specimen_Blood-4-sepsis"> </a><p class="res-header-id"><b>Generated Narrative: Specimen Blood-4-sepsis</b></p><a name="Blood-4-sepsis"> </a><a name="hcBlood-4-sepsis"> </a><a name="Blood-4-sepsis-en-US"> </a><p><b>status</b>: Available</p><p><b>type</b>: <span title="Codes:{http://snomed.info/sct 119297000}">Blood sample</span></p><p><b>subject</b>: <a href="Patient-SaraSpeckmann.html">Sara Speckmann  Female, DoB: 1975-12-12 ( urn:oid:2.16.756.5.30.1.123.100.1.1.1#80756011110123400006)</a></p><p><b>request</b>: <a href="ServiceRequest-4-sepsis-ServiceRequest.html">ServiceRequest: identifier = Placer Identifier: Y274589; status = active; intent = original-order; priority = urgent; reasonCode = Sepsis screening</a></p><h3>Collections</h3><table class="grid"><tr><td style="display: none">-</td><td><b>Collector</b></td><td><b>Collected[x]</b></td><td><b>BodySite</b></td></tr><tr><td style="display: none">*</td><td><a href="Practitioner-HansHauser.html">Practitioner Hans Hauser (official)</a></td><td>2015-08-16 06:40:17+0000</td><td><span title="Codes:{http://snomed.info/sct 721029009}">Structure of superficial vein of left upper limb (body structure)</span></td></tr></table><h3>Containers</h3><table class="grid"><tr><td style="display: none">-</td><td><b>Type</b></td></tr><tr><td style="display: none">*</td><td><span title="Codes:{http://snomed.info/sct 706053007}">General specimen container (physical object)</span></td></tr></table><p><b>note</b>: Specimen is grossly lipemic</p></div>
        </text>
        <status value="available"/>
        <type>
          <coding>
            <system value="http://snomed.info/sct"/>
            <code value="119297000"/>
            <display value="Blood sample"/>
          </coding>
        </type>
        <subject>
          <reference value="Patient/SaraSpeckmann"/>
        </subject>
        <request>
          <reference value="ServiceRequest/4-sepsis-ServiceRequest"/>
        </request>
        <collection>
          <collector>
            <reference value="Practitioner/HansHauser"/>
          </collector>
          <collectedDateTime value="2015-08-16T06:40:17Z"/>
          <bodySite>
            <coding>
              <system value="http://snomed.info/sct"/>
              <code value="721029009"/>
              <display value="Structure of superficial vein of left upper limb (body structure)"/>
            </coding>
          </bodySite>
        </collection>
        <container>
          <type>
            <coding>
              <system value="http://snomed.info/sct"/>
              <code value="706053007"/>
              <display value="General specimen container (physical object)"/>
            </coding>
          </type>
        </container>
        <note>
          <text value="Specimen is grossly lipemic"/>
        </note>
      </Specimen>
    </resource>
  </entry>
  <entry>
    <fullUrl value="http://example.com/fhir/Specimen/Serum-4-sepsis"/>
    <resource>
      <Specimen>
        <id value="Serum-4-sepsis"/>
        <text>
          <status value="generated"/><div xmlns="http://www.w3.org/1999/xhtml"><a name="Specimen_Serum-4-sepsis"> </a><p class="res-header-id"><b>Generated Narrative: Specimen Serum-4-sepsis</b></p><a name="Serum-4-sepsis"> </a><a name="hcSerum-4-sepsis"> </a><a name="Serum-4-sepsis-en-US"> </a><p><b>identifier</b>: 11111-15394-75465</p><p><b>accessionIdentifier</b>: 22222-bc987-dd888</p><p><b>status</b>: Available</p><p><b>type</b>: <span title="Codes:{http://snomed.info/sct 119364003}">Serum specimen (specimen)</span></p><p><b>subject</b>: <a href="Patient-SaraSpeckmann.html">Sara Speckmann  Female, DoB: 1975-12-12 ( urn:oid:2.16.756.5.30.1.123.100.1.1.1#80756011110123400006)</a></p><p><b>receivedTime</b>: 2023-12-01 16:40:17+0000</p><p><b>request</b>: <a href="ServiceRequest-4-sepsis-ServiceRequest.html">ServiceRequest: identifier = Placer Identifier: Y274589; status = active; intent = original-order; priority = urgent; reasonCode = Sepsis screening</a></p><h3>Collections</h3><table class="grid"><tr><td style="display: none">-</td><td><b>Collector</b></td><td><b>Collected[x]</b></td></tr><tr><td style="display: none">*</td><td><a href="Practitioner-HansHauser.html">Practitioner Hans Hauser (official)</a></td><td>2023-12-01 06:40:17+0000</td></tr></table><h3>Containers</h3><table class="grid"><tr><td style="display: none">-</td><td><b>Type</b></td></tr><tr><td style="display: none">*</td><td><span title="Codes:{http://snomed.info/sct 706053007}">General specimen container (physical object)</span></td></tr></table></div>
        </text>
        <identifier>
          <value value="11111-15394-75465"/>
        </identifier>
        <accessionIdentifier>
          <value value="22222-bc987-dd888"/>
        </accessionIdentifier>
        <status value="available"/>
        <type>
          <coding>
            <system value="http://snomed.info/sct"/>
            <code value="119364003"/>
            <display value="Serum specimen (specimen)"/>
          </coding>
        </type>
        <subject>
          <reference value="Patient/SaraSpeckmann"/>
        </subject>
        <receivedTime value="2023-12-01T16:40:17Z"/>
        <request>
          <reference value="ServiceRequest/4-sepsis-ServiceRequest"/>
        </request>
        <collection>
          <collector>
            <reference value="Practitioner/HansHauser"/>
          </collector>
          <collectedDateTime value="2023-12-01T06:40:17Z"/>
        </collection>
        <container>
          <type>
            <coding>
              <system value="http://snomed.info/sct"/>
              <code value="706053007"/>
              <display value="General specimen container (physical object)"/>
            </coding>
          </type>
        </container>
      </Specimen>
    </resource>
  </entry>
  <entry>
    <fullUrl value="http://example.com/fhir/ServiceRequest/4-sepsis-ServiceRequest"/>
    <resource>
      <ServiceRequest>
        <id value="4-sepsis-ServiceRequest"/>
        <meta>
          <profile value="http://fhir.ch/ig/ch-lab-order/StructureDefinition/ch-lab-order-SR"/>
        </meta>
        <text>
          <status value="generated"/><div xmlns="http://www.w3.org/1999/xhtml"><a name="ServiceRequest_4-sepsis-ServiceRequest"> </a><p class="res-header-id"><b>Generated Narrative: ServiceRequest 4-sepsis-ServiceRequest</b></p><a name="4-sepsis-ServiceRequest"> </a><a name="hc4-sepsis-ServiceRequest"> </a><a name="4-sepsis-ServiceRequest-en-US"> </a><div style="display: inline-block; background-color: #d9e0e7; padding: 6px; margin: 4px; border: 1px solid #8da1b4; border-radius: 5px; line-height: 60%"><p style="margin-bottom: 0px"/><p style="margin-bottom: 0px">Profile: <a href="StructureDefinition-ch-lab-order-SR.html">CH LAB-Order-SR</a></p></div><p><b>identifier</b>: Placer Identifier/Y274589</p><p><b>status</b>: Active</p><p><b>intent</b>: Original Order</p><p><b>priority</b>: Urgent</p><p><b>subject</b>: <a href="Patient-SaraSpeckmann.html">Sara Speckmann  Female, DoB: 1975-12-12 ( urn:oid:2.16.756.5.30.1.123.100.1.1.1#80756011110123400006)</a></p><p><b>requester</b>: <a href="PractitionerRole-HansHauserKantonsspital.html">PractitionerRole</a></p><p><b>reasonCode</b>: <span title="Codes:{http://snomed.info/sct 870441004}">Screening for sepsis (procedure)</span></p></div>
        </text>
        <identifier>
          <type>
            <coding>
              <system value="http://terminology.hl7.org/CodeSystem/v2-0203"/>
              <code value="PLAC"/>
              <display value="Placer Identifier"/>
            </coding>
          </type>
          <system value="urn:oid:2.16.756.5.30.1.123.100.2.1.1"/>
          <value value="Y274589"/>
        </identifier>
        <status value="active"/>
        <intent value="original-order"/>
        <priority value="urgent"/>
        <subject>
          <reference value="Patient/SaraSpeckmann"/>
        </subject>
        <requester>
          <reference value="PractitionerRole/HansHauserKantonsspital"/>
        </requester>
        <reasonCode>
          <coding>
            <system value="http://snomed.info/sct"/>
            <code value="870441004"/>
          </coding>
          <text value="Screening for sepsis (procedure)"/>
        </reasonCode>
      </ServiceRequest>
    </resource>
  </entry>
  <entry>
    <fullUrl value="http://example.com/fhir/ServiceRequest/4-sepsis-ServiceRequestHbHt"/>
    <resource>
      <ServiceRequest>
        <id value="4-sepsis-ServiceRequestHbHt"/>
        <meta>
          <profile value="http://fhir.ch/ig/ch-lab-order/StructureDefinition/ch-lab-order-SR"/>
        </meta>
        <text>
          <status value="generated"/><div xmlns="http://www.w3.org/1999/xhtml"><a name="ServiceRequest_4-sepsis-ServiceRequestHbHt"> </a><p class="res-header-id"><b>Generated Narrative: ServiceRequest 4-sepsis-ServiceRequestHbHt</b></p><a name="4-sepsis-ServiceRequestHbHt"> </a><a name="hc4-sepsis-ServiceRequestHbHt"> </a><a name="4-sepsis-ServiceRequestHbHt-en-US"> </a><div style="display: inline-block; background-color: #d9e0e7; padding: 6px; margin: 4px; border: 1px solid #8da1b4; border-radius: 5px; line-height: 60%"><p style="margin-bottom: 0px"/><p style="margin-bottom: 0px">Profile: <a href="StructureDefinition-ch-lab-order-SR.html">CH LAB-Order-SR</a></p></div><p><b>identifier</b>: Placer Identifier/Y274589</p><p><b>basedOn</b>: <a href="ServiceRequest-4-sepsis-ServiceRequest.html">ServiceRequest: identifier = Placer Identifier: Y274589; status = active; intent = original-order; priority = urgent; reasonCode = Sepsis screening</a></p><p><b>status</b>: Active</p><p><b>intent</b>: Original Order</p><p><b>priority</b>: Urgent</p><p><b>code</b>: <span title="Codes:{http://loinc.org 24360-0}">Hemoglobin and Hematocrit panel - Blood</span></p><p><b>subject</b>: <a href="Patient-SaraSpeckmann.html">Sara Speckmann  Female, DoB: 1975-12-12 ( urn:oid:2.16.756.5.30.1.123.100.1.1.1#80756011110123400006)</a></p><p><b>requester</b>: <a href="PractitionerRole-HansHauserKantonsspital.html">PractitionerRole</a></p><p><b>reasonCode</b>: <span title="Codes:{http://snomed.info/sct 870441004}">Screening for sepsis (procedure)</span></p><p><b>specimen</b>: <a href="Specimen-Blood-4-sepsis.html">Specimen: status = available; type = Blood sample; note = Specimen is grossly lipemic</a></p></div>
        </text>
        <identifier>
          <type>
            <coding>
              <system value="http://terminology.hl7.org/CodeSystem/v2-0203"/>
              <code value="PLAC"/>
              <display value="Placer Identifier"/>
            </coding>
          </type>
          <system value="urn:oid:2.16.756.5.30.1.123.100.2.1.1"/>
          <value value="Y274589"/>
        </identifier>
        <basedOn>
          <reference value="ServiceRequest/4-sepsis-ServiceRequest"/>
        </basedOn>
        <status value="active"/>
        <intent value="original-order"/>
        <priority value="urgent"/>
        <code>
          <coding>
            <system value="http://loinc.org"/>
            <code value="24360-0"/>
            <display value="Hemoglobin and Hematocrit panel - Blood"/>
          </coding>
        </code>
        <subject>
          <reference value="Patient/SaraSpeckmann"/>
        </subject>
        <requester>
          <reference value="PractitionerRole/HansHauserKantonsspital"/>
        </requester>
        <reasonCode>
          <coding>
            <system value="http://snomed.info/sct"/>
            <code value="870441004"/>
          </coding>
          <text value="Screening for sepsis (procedure)"/>
        </reasonCode>
        <specimen>
          <reference value="Specimen/Blood-4-sepsis"/>
        </specimen>
      </ServiceRequest>
    </resource>
  </entry>
  <entry>
    <fullUrl value="http://example.com/fhir/ServiceRequest/4-sepsis-ServiceRequestCBCDiff"/>
    <resource>
      <ServiceRequest>
        <id value="4-sepsis-ServiceRequestCBCDiff"/>
        <meta>
          <profile value="http://fhir.ch/ig/ch-lab-order/StructureDefinition/ch-lab-order-SR"/>
        </meta>
        <text>
          <status value="generated"/><div xmlns="http://www.w3.org/1999/xhtml"><a name="ServiceRequest_4-sepsis-ServiceRequestCBCDiff"> </a><p class="res-header-id"><b>Generated Narrative: ServiceRequest 4-sepsis-ServiceRequestCBCDiff</b></p><a name="4-sepsis-ServiceRequestCBCDiff"> </a><a name="hc4-sepsis-ServiceRequestCBCDiff"> </a><a name="4-sepsis-ServiceRequestCBCDiff-en-US"> </a><div style="display: inline-block; background-color: #d9e0e7; padding: 6px; margin: 4px; border: 1px solid #8da1b4; border-radius: 5px; line-height: 60%"><p style="margin-bottom: 0px"/><p style="margin-bottom: 0px">Profile: <a href="StructureDefinition-ch-lab-order-SR.html">CH LAB-Order-SR</a></p></div><p><b>identifier</b>: Placer Identifier/Y274589</p><p><b>basedOn</b>: <a href="ServiceRequest-4-sepsis-ServiceRequest.html">ServiceRequest: identifier = Placer Identifier: Y274589; status = active; intent = original-order; priority = urgent; reasonCode = Sepsis screening</a></p><p><b>status</b>: Active</p><p><b>intent</b>: Original Order</p><p><b>priority</b>: Urgent</p><p><b>code</b>: <span title="Codes:{http://loinc.org 57021-8}">CBC W Auto Differential panel - Blood</span></p><p><b>subject</b>: <a href="Patient-SaraSpeckmann.html">Sara Speckmann  Female, DoB: 1975-12-12 ( urn:oid:2.16.756.5.30.1.123.100.1.1.1#80756011110123400006)</a></p><p><b>requester</b>: <a href="PractitionerRole-HansHauserKantonsspital.html">PractitionerRole</a></p><p><b>reasonCode</b>: <span title="Codes:{http://snomed.info/sct 870441004}">Screening for sepsis (procedure)</span></p><p><b>specimen</b>: <a href="Specimen-Blood-4-sepsis.html">Specimen: status = available; type = Blood sample; note = Specimen is grossly lipemic</a></p></div>
        </text>
        <identifier>
          <type>
            <coding>
              <system value="http://terminology.hl7.org/CodeSystem/v2-0203"/>
              <code value="PLAC"/>
              <display value="Placer Identifier"/>
            </coding>
          </type>
          <system value="urn:oid:2.16.756.5.30.1.123.100.2.1.1"/>
          <value value="Y274589"/>
        </identifier>
        <basedOn>
          <reference value="ServiceRequest/4-sepsis-ServiceRequest"/>
        </basedOn>
        <status value="active"/>
        <intent value="original-order"/>
        <priority value="urgent"/>
        <code>
          <coding>
            <system value="http://loinc.org"/>
            <code value="57021-8"/>
            <display value="CBC W Auto Differential panel - Blood"/>
          </coding>
        </code>
        <subject>
          <reference value="Patient/SaraSpeckmann"/>
        </subject>
        <requester>
          <reference value="PractitionerRole/HansHauserKantonsspital"/>
        </requester>
        <reasonCode>
          <coding>
            <system value="http://snomed.info/sct"/>
            <code value="870441004"/>
          </coding>
          <text value="Screening for sepsis (procedure)"/>
        </reasonCode>
        <specimen>
          <reference value="Specimen/Blood-4-sepsis"/>
        </specimen>
      </ServiceRequest>
    </resource>
  </entry>
  <entry>
    <fullUrl value="http://example.com/fhir/ServiceRequest/4-sepsis-ServiceRequestGrowth"/>
    <resource>
      <ServiceRequest>
        <id value="4-sepsis-ServiceRequestGrowth"/>
        <meta>
          <profile value="http://fhir.ch/ig/ch-lab-order/StructureDefinition/ch-lab-order-SR"/>
        </meta>
        <text>
          <status value="generated"/><div xmlns="http://www.w3.org/1999/xhtml"><a name="ServiceRequest_4-sepsis-ServiceRequestGrowth"> </a><p class="res-header-id"><b>Generated Narrative: ServiceRequest 4-sepsis-ServiceRequestGrowth</b></p><a name="4-sepsis-ServiceRequestGrowth"> </a><a name="hc4-sepsis-ServiceRequestGrowth"> </a><a name="4-sepsis-ServiceRequestGrowth-en-US"> </a><div style="display: inline-block; background-color: #d9e0e7; padding: 6px; margin: 4px; border: 1px solid #8da1b4; border-radius: 5px; line-height: 60%"><p style="margin-bottom: 0px"/><p style="margin-bottom: 0px">Profile: <a href="StructureDefinition-ch-lab-order-SR.html">CH LAB-Order-SR</a></p></div><p><b>identifier</b>: Placer Identifier/Y274589</p><p><b>basedOn</b>: <a href="ServiceRequest-4-sepsis-ServiceRequest.html">ServiceRequest: identifier = Placer Identifier: Y274589; status = active; intent = original-order; priority = urgent; reasonCode = Sepsis screening</a></p><p><b>status</b>: Active</p><p><b>intent</b>: Original Order</p><p><b>priority</b>: Urgent</p><p><b>code</b>: <span title="Codes:{http://loinc.org 90423-5}">Microorganism preliminary growth detection panel - Blood by Culture</span></p><p><b>orderDetail</b>: <span title="Codes:{http://terminology.hl7.org/CodeSystem/v2-0119 NW}">New order/service</span></p><p><b>subject</b>: <a href="Patient-SaraSpeckmann.html">Sara Speckmann  Female, DoB: 1975-12-12 ( urn:oid:2.16.756.5.30.1.123.100.1.1.1#80756011110123400006)</a></p><p><b>requester</b>: <a href="PractitionerRole-HansHauserKantonsspital.html">PractitionerRole</a></p><p><b>reasonCode</b>: <span title="Codes:{http://snomed.info/sct 870441004}">Screening for sepsis (procedure)</span></p><p><b>specimen</b>: <a href="Specimen-Blood-bactec-plus-4-sepsis.html">Specimen: status = available; type = Blood sample; note = Each container type contains two blood samples taken 30 minutes apart, so we get 4 vials in total</a></p></div>
        </text>
        <identifier>
          <type>
            <coding>
              <system value="http://terminology.hl7.org/CodeSystem/v2-0203"/>
              <code value="PLAC"/>
              <display value="Placer Identifier"/>
            </coding>
          </type>
          <system value="urn:oid:2.16.756.5.30.1.123.100.2.1.1"/>
          <value value="Y274589"/>
        </identifier>
        <basedOn>
          <reference value="ServiceRequest/4-sepsis-ServiceRequest"/>
        </basedOn>
        <status value="active"/>
        <intent value="original-order"/>
        <priority value="urgent"/>
        <code>
          <coding>
            <system value="http://loinc.org"/>
            <code value="90423-5"/>
            <display value="Microorganism preliminary growth detection panel - Blood by Culture"/>
          </coding>
        </code>
        <orderDetail>
          <coding>
            <system value="http://terminology.hl7.org/CodeSystem/v2-0119"/>
            <code value="NW"/>
            <display value="New order/service"/>
          </coding>
        </orderDetail>
        <subject>
          <reference value="Patient/SaraSpeckmann"/>
        </subject>
        <requester>
          <reference value="PractitionerRole/HansHauserKantonsspital"/>
        </requester>
        <reasonCode>
          <coding>
            <system value="http://snomed.info/sct"/>
            <code value="870441004"/>
          </coding>
          <text value="Screening for sepsis (procedure)"/>
        </reasonCode>
        <specimen>
          <reference value="Specimen/Blood-bactec-plus-4-sepsis"/>
        </specimen>
      </ServiceRequest>
    </resource>
  </entry>
  <entry>
    <fullUrl value="http://example.com/fhir/ServiceRequest/4-sepsis-ServiceRequestCRP"/>
    <resource>
      <ServiceRequest>
        <id value="4-sepsis-ServiceRequestCRP"/>
        <meta>
          <profile value="http://fhir.ch/ig/ch-lab-order/StructureDefinition/ch-lab-order-SR"/>
        </meta>
        <text>
          <status value="generated"/><div xmlns="http://www.w3.org/1999/xhtml"><a name="ServiceRequest_4-sepsis-ServiceRequestCRP"> </a><p class="res-header-id"><b>Generated Narrative: ServiceRequest 4-sepsis-ServiceRequestCRP</b></p><a name="4-sepsis-ServiceRequestCRP"> </a><a name="hc4-sepsis-ServiceRequestCRP"> </a><a name="4-sepsis-ServiceRequestCRP-en-US"> </a><div style="display: inline-block; background-color: #d9e0e7; padding: 6px; margin: 4px; border: 1px solid #8da1b4; border-radius: 5px; line-height: 60%"><p style="margin-bottom: 0px"/><p style="margin-bottom: 0px">Profile: <a href="StructureDefinition-ch-lab-order-SR.html">CH LAB-Order-SR</a></p></div><p><b>identifier</b>: Placer Identifier/Y274589</p><p><b>basedOn</b>: <a href="ServiceRequest-4-sepsis-ServiceRequest.html">ServiceRequest: identifier = Placer Identifier: Y274589; status = active; intent = original-order; priority = urgent; reasonCode = Sepsis screening</a></p><p><b>status</b>: Active</p><p><b>intent</b>: Original Order</p><p><b>priority</b>: Urgent</p><p><b>code</b>: <span title="Codes:{http://loinc.org 1988-5}">C reactive protein [Mass/Volume] in Serum or Plasma</span></p><p><b>subject</b>: <a href="Patient-SaraSpeckmann.html">Sara Speckmann  Female, DoB: 1975-12-12 ( urn:oid:2.16.756.5.30.1.123.100.1.1.1#80756011110123400006)</a></p><p><b>requester</b>: <a href="PractitionerRole-HansHauserKantonsspital.html">PractitionerRole</a></p><p><b>reasonCode</b>: <span title="Codes:{http://snomed.info/sct 870441004}">Screening for sepsis (procedure)</span></p><p><b>specimen</b>: <a href="Specimen-Serum-4-sepsis.html">Specimen: identifier = 11111-15394-75465; accessionIdentifier = 22222-bc987-dd888; status = available; type = Serum specimen (specimen); receivedTime = 2023-12-01 16:40:17+0000</a></p></div>
        </text>
        <identifier>
          <type>
            <coding>
              <system value="http://terminology.hl7.org/CodeSystem/v2-0203"/>
              <code value="PLAC"/>
              <display value="Placer Identifier"/>
            </coding>
          </type>
          <system value="urn:oid:2.16.756.5.30.1.123.100.2.1.1"/>
          <value value="Y274589"/>
        </identifier>
        <basedOn>
          <reference value="ServiceRequest/4-sepsis-ServiceRequest"/>
        </basedOn>
        <status value="active"/>
        <intent value="original-order"/>
        <priority value="urgent"/>
        <code>
          <coding>
            <system value="http://loinc.org"/>
            <code value="1988-5"/>
            <display value="C reactive protein [Mass/Volume] in Serum or Plasma"/>
          </coding>
        </code>
        <subject>
          <reference value="Patient/SaraSpeckmann"/>
        </subject>
        <requester>
          <reference value="PractitionerRole/HansHauserKantonsspital"/>
        </requester>
        <reasonCode>
          <coding>
            <system value="http://snomed.info/sct"/>
            <code value="870441004"/>
          </coding>
          <text value="Screening for sepsis (procedure)"/>
        </reasonCode>
        <specimen>
          <reference value="Specimen/Serum-4-sepsis"/>
        </specimen>
      </ServiceRequest>
    </resource>
  </entry>
</Bundle>