{
  "resourceType" : "Bundle",
  "id" : "ch-lab-order-document-with-sr",
  "meta" : {
    "versionId" : "1",
    "lastUpdated" : "2019-04-01T20:18:41.341+00:00",
    "profile" : ["http://fhir.ch/ig/ch-lab-order/StructureDefinition/ch-lab-order-document-with-sr"]
  },
  "language" : "en",
  "identifier" : {
    "system" : "urn:ietf:rfc:3986",
    "value" : "urn:uuid:26d3dff7-ab05-4737-a49c-5eccd33595f8"
  },
  "type" : "document",
  "timestamp" : "2019-04-01T20:18:41.341+00:00",
  "entry" : [{
    "fullUrl" : "http://example.com/fhir/Composition/ch-lab-order-composition-with-sr",
    "resource" : {
      "resourceType" : "Composition",
      "id" : "ch-lab-order-composition-with-sr",
      "meta" : {
        "versionId" : "1",
        "lastUpdated" : "2021-02-18T17:04:38.520+00:00",
        "profile" : ["http://fhir.ch/ig/ch-lab-order/StructureDefinition/ch-lab-order-composition-with-sr"]
      },
      "text" : {
        "status" : "additional",
        "div" : "<div xmlns=\"http://www.w3.org/1999/xhtml\"><div>Laboratory Order with ServiceRequest</div></div>"
      },
      "extension" : [{
        "extension" : [{
          "url" : "enterer",
          "valueReference" : {
            "reference" : "PractitionerRole/MarcMustermannGruppenpraxis"
          }
        }],
        "url" : "http://fhir.ch/ig/ch-core/StructureDefinition/ch-ext-epr-dataenterer"
      },
      {
        "url" : "http://fhir.ch/ig/ch-orf/StructureDefinition/ch-orf-urgentnoficationcontactforthisdocument",
        "valueReference" : {
          "reference" : "PractitionerRole/EvaErlenmeyerLaborPipette"
        }
      },
      {
        "url" : "http://fhir.ch/ig/ch-orf/StructureDefinition/ch-orf-urgentnoficationcontactfortheresponsetothisdocument",
        "valueReference" : {
          "reference" : "PractitionerRole/MarcMustermannGruppenpraxis"
        }
      },
      {
        "url" : "http://fhir.ch/ig/ch-orf/StructureDefinition/ch-orf-receiver",
        "valueReference" : {
          "reference" : "PractitionerRole/EvaErlenmeyerLaborPipette"
        }
      },
      {
        "url" : "http://fhir.ch/ig/ch-orf/StructureDefinition/ch-orf-copyreceiver",
        "valueReference" : {
          "reference" : "PractitionerRole/PeterPrestoGruppenpraxis"
        }
      },
      {
        "url" : "http://fhir.ch/ig/ch-orf/StructureDefinition/ch-orf-copyreceiver",
        "valueReference" : {
          "reference" : "Patient/HansGuggindieluft"
        }
      }],
      "status" : "final",
      "type" : {
        "coding" : [{
          "system" : "http://snomed.info/sct",
          "code" : "721965002",
          "display" : "Laboratory order (record artifact)"
        }]
      },
      "category" : [{
        "coding" : [{
          "system" : "http://snomed.info/sct",
          "code" : "721963009",
          "display" : "Order (record artifact)"
        }]
      }],
      "subject" : {
        "reference" : "Patient/HansGuggindieluft"
      },
      "date" : "2025-03-05T11:46:09+02:00",
      "author" : [{
        "reference" : "PractitionerRole/MarcMustermannGruppenpraxis"
      }],
      "title" : "Laborauftrag",
      "section" : [{
        "title" : "Auftrag für Laboruntersuchung",
        "code" : {
          "coding" : [{
            "system" : "http://snomed.info/sct",
            "code" : "721963009",
            "display" : "Order (record artifact)"
          }]
        },
        "text" : {
          "status" : "generated",
          "div" : "<div xmlns=\"http://www.w3.org/1999/xhtml\">Order-Referral-Form</div>"
        },
        "entry" : [{
          "reference" : "ServiceRequest/service-request-potassium-serum"
        }]
      }]
    }
  },
  {
    "fullUrl" : "http://example.com/fhir/Patient/HansGuggindieluft",
    "resource" : {
      "resourceType" : "Patient",
      "id" : "HansGuggindieluft",
      "meta" : {
        "profile" : ["http://fhir.ch/ig/ch-core/StructureDefinition/ch-core-patient"]
      },
      "text" : {
        "status" : "additional",
        "div" : "<div xmlns=\"http://www.w3.org/1999/xhtml\"><p><b>id</b>: HansGuggindieluft</p><p><b>meta</b>:</p><p><b>identifier</b>: 80756011110123400009</p><p><b>name</b>: Hans Guggindieluft</p><p><b>gender</b>: MALE</p><p><b>birthDate</b>: Jan 01, 1981</p><p><b>maritalStatus</b>: unverheiratet <span style=\"background: LightGoldenRodYellow\">(Details : {$ech-11-maritalstatus code '5' = '5', given as 'unverheiratet'})</span></p><h3>Communications</h3><table class=\"grid\"><tr><td>-</td><td><b>Language</b></td><td><b>Preferred</b></td></tr><tr><td>*</td><td>Deutsch (Schweiz) <span style=\"background: LightGoldenRodYellow\">(Details : {urn:ietf:bcp:47 code 'de-CH' = 'German (Region=Schweiz))</span></td><td>true</td></tr></table></div>"
      },
      "extension" : [{
        "url" : "http://hl7.org/fhir/StructureDefinition/patient-birthPlace",
        "valueAddress" : {
          "city" : "Zürich",
          "country" : "Schweiz"
        }
      },
      {
        "url" : "http://fhir.ch/ig/ch-core/StructureDefinition/ch-core-patient-ech-11-placeoforigin",
        "valueAddress" : {
          "city" : "Breitenbach",
          "state" : "BL"
        }
      },
      {
        "url" : "http://hl7.org/fhir/StructureDefinition/patient-religion",
        "valueCodeableConcept" : {
          "coding" : [{
            "system" : "http://terminology.hl7.org/CodeSystem/v3-ReligiousAffiliation",
            "code" : "1007",
            "display" : "Atheism"
          }]
        }
      }],
      "identifier" : [{
        "system" : "urn:oid:2.16.756.5.30.1.123.100.1.1.1",
        "value" : "80756011110123400009"
      }],
      "name" : [{
        "family" : "Guggindieluft",
        "given" : ["Hans"]
      }],
      "telecom" : [{
        "system" : "phone",
        "value" : "079 979 79 79",
        "use" : "home"
      },
      {
        "system" : "email",
        "value" : "hans.guggindieluft@example.ch"
      }],
      "gender" : "male",
      "birthDate" : "1981-01-01",
      "maritalStatus" : {
        "coding" : [{
          "system" : "http://fhir.ch/ig/ch-core/CodeSystem/ech-11-maritalstatus",
          "code" : "5",
          "display" : "unverheiratet"
        }]
      },
      "communication" : [{
        "language" : {
          "coding" : [{
            "system" : "urn:ietf:bcp:47",
            "code" : "de-CH"
          }],
          "text" : "Deutsch (Schweiz)"
        },
        "preferred" : true
      }]
    }
  },
  {
    "fullUrl" : "http://example.com/fhir/Practitioner/MarcMustermann",
    "resource" : {
      "resourceType" : "Practitioner",
      "id" : "MarcMustermann",
      "meta" : {
        "profile" : ["http://fhir.ch/ig/ch-core/StructureDefinition/ch-core-practitioner"]
      },
      "text" : {
        "status" : "generated",
        "div" : "<div xmlns=\"http://www.w3.org/1999/xhtml\"><a name=\"Practitioner_MarcMustermann\"> </a><p class=\"res-header-id\"><b>Generated Narrative: Practitioner MarcMustermann</b></p><a name=\"MarcMustermann\"> </a><a name=\"hcMarcMustermann\"> </a><a name=\"MarcMustermann-en-US\"> </a><div style=\"display: inline-block; background-color: #d9e0e7; padding: 6px; margin: 4px; border: 1px solid #8da1b4; border-radius: 5px; line-height: 60%\"><p style=\"margin-bottom: 0px\"/><p style=\"margin-bottom: 0px\">Profile: <a href=\"http://fhir.ch/ig/ch-core/6.0.0-ballot/StructureDefinition-ch-core-practitioner.html\">CH Core Practitioner</a></p></div><p><b>identifier</b>: <a href=\"https://www.gs1.org/standards/id-keys/gln\" title=\"Global Location Number\">GLN</a>/7601000050700, <code>urn:oid:2.16.756.5.30.1.123.100.2.1.1</code>/L248519</p><p><b>name</b>: Marc Mustermann (Official)</p><p><b>telecom</b>: ph: 033 444 22 11(Work), <a href=\"mailto:marc.mustermann@gruppenpraxis.ch\">marc.mustermann@gruppenpraxis.ch</a></p></div>"
      },
      "identifier" : [{
        "system" : "urn:oid:2.51.1.3",
        "value" : "7601000050700"
      },
      {
        "system" : "urn:oid:2.16.756.5.30.1.123.100.2.1.1",
        "value" : "L248519"
      }],
      "name" : [{
        "use" : "official",
        "family" : "Mustermann",
        "given" : ["Marc"],
        "prefix" : ["Dr. med."],
        "_prefix" : [{
          "extension" : [{
            "url" : "http://hl7.org/fhir/StructureDefinition/iso21090-EN-qualifier",
            "valueCode" : "AC"
          }]
        }]
      }],
      "telecom" : [{
        "system" : "phone",
        "value" : "033 444 22 11",
        "use" : "work"
      },
      {
        "system" : "email",
        "value" : "marc.mustermann@gruppenpraxis.ch",
        "use" : "work"
      }]
    }
  },
  {
    "fullUrl" : "http://example.com/fhir/Organization/Gruppenpraxis",
    "resource" : {
      "resourceType" : "Organization",
      "id" : "Gruppenpraxis",
      "meta" : {
        "profile" : ["http://fhir.ch/ig/ch-core/StructureDefinition/ch-core-organization-epr"]
      },
      "text" : {
        "status" : "generated",
        "div" : "<div xmlns=\"http://www.w3.org/1999/xhtml\"><a name=\"Organization_Gruppenpraxis\"> </a><p class=\"res-header-id\"><b>Generated Narrative: Organization Gruppenpraxis</b></p><a name=\"Gruppenpraxis\"> </a><a name=\"hcGruppenpraxis\"> </a><a name=\"Gruppenpraxis-en-US\"> </a><div style=\"display: inline-block; background-color: #d9e0e7; padding: 6px; margin: 4px; border: 1px solid #8da1b4; border-radius: 5px; line-height: 60%\"><p style=\"margin-bottom: 0px\"/><p style=\"margin-bottom: 0px\">Profile: <a href=\"http://fhir.ch/ig/ch-core/6.0.0-ballot/StructureDefinition-ch-core-organization-epr.html\">CH Core Organization EPR</a></p></div><p><b>identifier</b>: <a href=\"https://www.gs1.org/standards/id-keys/gln\" title=\"Global Location Number\">GLN</a>/7601000241115</p><p><b>name</b>: Gruppenpraxis Olten</p><p><b>telecom</b>: <a href=\"tel:+41555556677\">+41555556677</a>, <a href=\"mailto:info@gruppenpraxis.ch\">info@gruppenpraxis.ch</a>, <a href=\"http://www.gruppenpraxis.ch\">http://www.gruppenpraxis.ch</a></p><p><b>address</b>: Gerbergasse 12 Olten 4600 CH </p></div>"
      },
      "identifier" : [{
        "system" : "urn:oid:2.51.1.3",
        "value" : "7601000241115"
      }],
      "name" : "Gruppenpraxis Olten",
      "telecom" : [{
        "system" : "phone",
        "value" : "+41555556677",
        "use" : "work"
      },
      {
        "system" : "email",
        "value" : "info@gruppenpraxis.ch",
        "use" : "work"
      },
      {
        "system" : "url",
        "value" : "http://www.gruppenpraxis.ch",
        "use" : "work"
      }],
      "address" : [{
        "line" : ["Gerbergasse 12"],
        "city" : "Olten",
        "postalCode" : "4600",
        "country" : "CH"
      }]
    }
  },
  {
    "fullUrl" : "http://example.com/fhir/PractitionerRole/MarcMustermannGruppenpraxis",
    "resource" : {
      "resourceType" : "PractitionerRole",
      "id" : "MarcMustermannGruppenpraxis",
      "meta" : {
        "profile" : ["http://fhir.ch/ig/ch-core/StructureDefinition/ch-core-practitionerrole"]
      },
      "text" : {
        "status" : "generated",
        "div" : "<div xmlns=\"http://www.w3.org/1999/xhtml\"><a name=\"PractitionerRole_MarcMustermannGruppenpraxis\"> </a><p class=\"res-header-id\"><b>Generated Narrative: PractitionerRole MarcMustermannGruppenpraxis</b></p><a name=\"MarcMustermannGruppenpraxis\"> </a><a name=\"hcMarcMustermannGruppenpraxis\"> </a><a name=\"MarcMustermannGruppenpraxis-en-US\"> </a><div style=\"display: inline-block; background-color: #d9e0e7; padding: 6px; margin: 4px; border: 1px solid #8da1b4; border-radius: 5px; line-height: 60%\"><p style=\"margin-bottom: 0px\"/><p style=\"margin-bottom: 0px\">Profile: <a href=\"http://fhir.ch/ig/ch-core/6.0.0-ballot/StructureDefinition-ch-core-practitionerrole.html\">CH Core PractitionerRole</a></p></div><p><b>practitioner</b>: <a href=\"Practitioner-MarcMustermann.html\">Practitioner Marc Mustermann (official)</a></p><p><b>organization</b>: <a href=\"Organization-Gruppenpraxis.html\">Organization Gruppenpraxis Olten</a></p></div>"
      },
      "practitioner" : {
        "reference" : "Practitioner/MarcMustermann"
      },
      "organization" : {
        "reference" : "Organization/Gruppenpraxis"
      }
    }
  },
  {
    "fullUrl" : "http://example.com/fhir/Practitioner/EvaErlenmeyer",
    "resource" : {
      "resourceType" : "Practitioner",
      "id" : "EvaErlenmeyer",
      "meta" : {
        "profile" : ["http://fhir.ch/ig/ch-core/StructureDefinition/ch-core-practitioner"]
      },
      "text" : {
        "status" : "generated",
        "div" : "<div xmlns=\"http://www.w3.org/1999/xhtml\"><a name=\"Practitioner_EvaErlenmeyer\"> </a><p class=\"res-header-id\"><b>Generated Narrative: Practitioner EvaErlenmeyer</b></p><a name=\"EvaErlenmeyer\"> </a><a name=\"hcEvaErlenmeyer\"> </a><a name=\"EvaErlenmeyer-en-US\"> </a><div style=\"display: inline-block; background-color: #d9e0e7; padding: 6px; margin: 4px; border: 1px solid #8da1b4; border-radius: 5px; line-height: 60%\"><p style=\"margin-bottom: 0px\"/><p style=\"margin-bottom: 0px\">Profile: <a href=\"http://fhir.ch/ig/ch-core/6.0.0-ballot/StructureDefinition-ch-core-practitioner.html\">CH Core Practitioner</a></p></div><p><b>identifier</b>: <a href=\"https://www.gs1.org/standards/id-keys/gln\" title=\"Global Location Number\">GLN</a>/7601000050717, <code>urn:oid:2.16.756.5.30.1.123.100.2.1.1</code>/Y274589</p><p><b>name</b>: Eva Erlenmeyer (Official)</p><p><b>telecom</b>: ph: 033 444 55 66(Work), <a href=\"mailto:eva.erlenmeyer@labor-pipette.ch\">eva.erlenmeyer@labor-pipette.ch</a></p></div>"
      },
      "identifier" : [{
        "system" : "urn:oid:2.51.1.3",
        "value" : "7601000050717"
      },
      {
        "system" : "urn:oid:2.16.756.5.30.1.123.100.2.1.1",
        "value" : "Y274589"
      }],
      "name" : [{
        "use" : "official",
        "family" : "Erlenmeyer",
        "given" : ["Eva"],
        "prefix" : ["Dr. med."],
        "_prefix" : [{
          "extension" : [{
            "url" : "http://hl7.org/fhir/StructureDefinition/iso21090-EN-qualifier",
            "valueCode" : "AC"
          }]
        }]
      }],
      "telecom" : [{
        "system" : "phone",
        "value" : "033 444 55 66",
        "use" : "work"
      },
      {
        "system" : "email",
        "value" : "eva.erlenmeyer@labor-pipette.ch",
        "use" : "work"
      }]
    }
  },
  {
    "fullUrl" : "http://example.com/fhir/Organization/LaborPipette",
    "resource" : {
      "resourceType" : "Organization",
      "id" : "LaborPipette",
      "meta" : {
        "profile" : ["http://fhir.ch/ig/ch-core/StructureDefinition/ch-core-organization"]
      },
      "text" : {
        "status" : "generated",
        "div" : "<div xmlns=\"http://www.w3.org/1999/xhtml\"><a name=\"Organization_LaborPipette\"> </a><p class=\"res-header-id\"><b>Generated Narrative: Organization LaborPipette</b></p><a name=\"LaborPipette\"> </a><a name=\"hcLaborPipette\"> </a><a name=\"LaborPipette-en-US\"> </a><div style=\"display: inline-block; background-color: #d9e0e7; padding: 6px; margin: 4px; border: 1px solid #8da1b4; border-radius: 5px; line-height: 60%\"><p style=\"margin-bottom: 0px\"/><p style=\"margin-bottom: 0px\">Profile: <a href=\"http://fhir.ch/ig/ch-core/6.0.0-ballot/StructureDefinition-ch-core-organization.html\">CH Core Organization</a></p></div><p><b>identifier</b>: <a href=\"https://www.gs1.org/standards/id-keys/gln\" title=\"Global Location Number\">GLN</a>/7601000234407</p><p><b>name</b>: Labor Pipette</p><p><b>telecom</b>: <a href=\"tel:+41223345566\">+41223345566</a>, <a href=\"mailto:info@labor-pipette.ch\">info@labor-pipette.ch</a>, <a href=\"http://www.labor-pipette.ch\">http://www.labor-pipette.ch</a></p><p><b>address</b>: Laborstrasse 23 Olten 4600 CH </p></div>"
      },
      "identifier" : [{
        "system" : "urn:oid:2.51.1.3",
        "value" : "7601000234407"
      }],
      "name" : "Labor Pipette",
      "telecom" : [{
        "system" : "phone",
        "value" : "+41223345566",
        "use" : "work"
      },
      {
        "system" : "email",
        "value" : "info@labor-pipette.ch",
        "use" : "work"
      },
      {
        "system" : "url",
        "value" : "http://www.labor-pipette.ch",
        "use" : "work"
      }],
      "address" : [{
        "line" : ["Laborstrasse 23"],
        "city" : "Olten",
        "postalCode" : "4600",
        "country" : "CH"
      }]
    }
  },
  {
    "fullUrl" : "http://example.com/fhir/PractitionerRole/EvaErlenmeyerLaborPipette",
    "resource" : {
      "resourceType" : "PractitionerRole",
      "id" : "EvaErlenmeyerLaborPipette",
      "meta" : {
        "profile" : ["http://fhir.ch/ig/ch-core/StructureDefinition/ch-core-practitionerrole"]
      },
      "text" : {
        "status" : "generated",
        "div" : "<div xmlns=\"http://www.w3.org/1999/xhtml\"><a name=\"PractitionerRole_EvaErlenmeyerLaborPipette\"> </a><p class=\"res-header-id\"><b>Generated Narrative: PractitionerRole EvaErlenmeyerLaborPipette</b></p><a name=\"EvaErlenmeyerLaborPipette\"> </a><a name=\"hcEvaErlenmeyerLaborPipette\"> </a><a name=\"EvaErlenmeyerLaborPipette-en-US\"> </a><div style=\"display: inline-block; background-color: #d9e0e7; padding: 6px; margin: 4px; border: 1px solid #8da1b4; border-radius: 5px; line-height: 60%\"><p style=\"margin-bottom: 0px\"/><p style=\"margin-bottom: 0px\">Profile: <a href=\"http://fhir.ch/ig/ch-core/6.0.0-ballot/StructureDefinition-ch-core-practitionerrole.html\">CH Core PractitionerRole</a></p></div><p><b>identifier</b>: <code>urn:oid:2.16.756.5.30.1.123.100.2.1.1</code>/K333333</p><p><b>practitioner</b>: <a href=\"Practitioner-EvaErlenmeyer.html\">Practitioner Eva Erlenmeyer (official)</a></p><p><b>organization</b>: <a href=\"Organization-LaborPipette.html\">Organization Labor Pipette</a></p></div>"
      },
      "identifier" : [{
        "system" : "urn:oid:2.16.756.5.30.1.123.100.2.1.1",
        "value" : "K333333"
      }],
      "practitioner" : {
        "reference" : "Practitioner/EvaErlenmeyer"
      },
      "organization" : {
        "reference" : "Organization/LaborPipette"
      }
    }
  },
  {
    "fullUrl" : "http://example.com/fhir/Practitioner/PeterPresto",
    "resource" : {
      "resourceType" : "Practitioner",
      "id" : "PeterPresto",
      "meta" : {
        "profile" : ["http://fhir.ch/ig/ch-core/StructureDefinition/ch-core-practitioner-epr"]
      },
      "text" : {
        "status" : "generated",
        "div" : "<div xmlns=\"http://www.w3.org/1999/xhtml\"><a name=\"Practitioner_PeterPresto\"> </a><p class=\"res-header-id\"><b>Generated Narrative: Practitioner PeterPresto</b></p><a name=\"PeterPresto\"> </a><a name=\"hcPeterPresto\"> </a><a name=\"PeterPresto-en-US\"> </a><div style=\"display: inline-block; background-color: #d9e0e7; padding: 6px; margin: 4px; border: 1px solid #8da1b4; border-radius: 5px; line-height: 60%\"><p style=\"margin-bottom: 0px\"/><p style=\"margin-bottom: 0px\">Profile: <a href=\"http://fhir.ch/ig/ch-core/6.0.0-ballot/StructureDefinition-ch-core-practitioner-epr.html\">CH Core Practitioner EPR</a></p></div><p><b>identifier</b>: <a href=\"https://www.gs1.org/standards/id-keys/gln\" title=\"Global Location Number\">GLN</a>/7601022050702, <code>urn:oid:2.16.756.5.30.1.123.100.2.1.1</code>/L248519</p><p><b>name</b>: Peter Presto (Official)</p><p><b>telecom</b>: ph: 032 333 22 33(Work), <a href=\"mailto:peter.presto@arztpraxis.ch\">peter.presto@arztpraxis.ch</a></p></div>"
      },
      "identifier" : [{
        "system" : "urn:oid:2.51.1.3",
        "value" : "7601022050702"
      },
      {
        "system" : "urn:oid:2.16.756.5.30.1.123.100.2.1.1",
        "value" : "L248519"
      }],
      "name" : [{
        "use" : "official",
        "family" : "Presto",
        "given" : ["Peter"],
        "prefix" : ["Dr. med."],
        "_prefix" : [{
          "extension" : [{
            "url" : "http://hl7.org/fhir/StructureDefinition/iso21090-EN-qualifier",
            "valueCode" : "AC"
          }]
        }]
      }],
      "telecom" : [{
        "system" : "phone",
        "value" : "032 333 22 33",
        "use" : "work"
      },
      {
        "system" : "email",
        "value" : "peter.presto@arztpraxis.ch",
        "use" : "work"
      }]
    }
  },
  {
    "fullUrl" : "http://example.com/fhir/PractitionerRole/PeterPrestoGruppenpraxis",
    "resource" : {
      "resourceType" : "PractitionerRole",
      "id" : "PeterPrestoGruppenpraxis",
      "meta" : {
        "profile" : ["http://fhir.ch/ig/ch-core/StructureDefinition/ch-core-practitionerrole"]
      },
      "text" : {
        "status" : "generated",
        "div" : "<div xmlns=\"http://www.w3.org/1999/xhtml\"><a name=\"PractitionerRole_PeterPrestoGruppenpraxis\"> </a><p class=\"res-header-id\"><b>Generated Narrative: PractitionerRole PeterPrestoGruppenpraxis</b></p><a name=\"PeterPrestoGruppenpraxis\"> </a><a name=\"hcPeterPrestoGruppenpraxis\"> </a><a name=\"PeterPrestoGruppenpraxis-en-US\"> </a><div style=\"display: inline-block; background-color: #d9e0e7; padding: 6px; margin: 4px; border: 1px solid #8da1b4; border-radius: 5px; line-height: 60%\"><p style=\"margin-bottom: 0px\"/><p style=\"margin-bottom: 0px\">Profile: <a href=\"http://fhir.ch/ig/ch-core/6.0.0-ballot/StructureDefinition-ch-core-practitionerrole.html\">CH Core PractitionerRole</a></p></div><p><b>practitioner</b>: <a href=\"Practitioner-PeterPresto.html\">Practitioner Peter Presto (official)</a></p><p><b>organization</b>: <a href=\"Organization-Gruppenpraxis.html\">Organization Gruppenpraxis Olten</a></p></div>"
      },
      "practitioner" : {
        "reference" : "Practitioner/PeterPresto"
      },
      "organization" : {
        "reference" : "Organization/Gruppenpraxis"
      }
    }
  },
  {
    "fullUrl" : "http://example.com/fhir/Specimen/Serum",
    "resource" : {
      "resourceType" : "Specimen",
      "id" : "Serum",
      "text" : {
        "status" : "generated",
        "div" : "<div xmlns=\"http://www.w3.org/1999/xhtml\"><a name=\"Specimen_Serum\"> </a><p class=\"res-header-id\"><b>Generated Narrative: Specimen Serum</b></p><a name=\"Serum\"> </a><a name=\"hcSerum\"> </a><a name=\"Serum-en-US\"> </a><p><b>identifier</b>: 48736-12345-75465</p><p><b>accessionIdentifier</b>: 4e88a-12345-dd888</p><p><b>status</b>: Available</p><p><b>type</b>: <span title=\"Codes:{http://snomed.info/sct 119364003}\">Serum specimen (specimen)</span></p><p><b>subject</b>: <a href=\"Patient-BeatBorer.html\">Beat Borer  Male, DoB: 1986-06-06 ( urn:oid:2.16.756.5.30.1.123.100.1.1.1#80756011110123400007)</a></p><h3>Collections</h3><table class=\"grid\"><tr><td style=\"display: none\">-</td><td><b>Collector</b></td><td><b>Collected[x]</b></td><td><b>BodySite</b></td><td><b>FastingStatus[x]</b></td></tr><tr><td style=\"display: none\">*</td><td><a href=\"Practitioner-MarcMustermann.html\">Practitioner Marc Mustermann (official)</a></td><td>2015-08-16 06:40:17+0000</td><td><span title=\"Codes:{http://snomed.info/sct 49852007}\">Structure of median cubital vein (body structure)</span></td><td><span title=\"Codes:{http://terminology.hl7.org/CodeSystem/v2-0916 F}\">Patient was fasting prior to the procedure.</span></td></tr></table><h3>Containers</h3><table class=\"grid\"><tr><td style=\"display: none\">-</td><td><b>Type</b></td></tr><tr><td style=\"display: none\">*</td><td><span title=\"Codes:{http://snomed.info/sct 706053007}\">General specimen container (physical object)</span></td></tr></table></div>"
      },
      "identifier" : [{
        "value" : "48736-12345-75465"
      }],
      "accessionIdentifier" : {
        "value" : "4e88a-12345-dd888"
      },
      "status" : "available",
      "type" : {
        "coding" : [{
          "system" : "http://snomed.info/sct",
          "code" : "119364003",
          "display" : "Serum specimen (specimen)"
        }]
      },
      "subject" : {
        "reference" : "Patient/BeatBorer"
      },
      "collection" : {
        "collector" : {
          "reference" : "Practitioner/MarcMustermann"
        },
        "collectedDateTime" : "2015-08-16T06:40:17Z",
        "bodySite" : {
          "coding" : [{
            "system" : "http://snomed.info/sct",
            "code" : "49852007",
            "display" : "Structure of median cubital vein (body structure)"
          }]
        },
        "fastingStatusCodeableConcept" : {
          "coding" : [{
            "system" : "http://terminology.hl7.org/CodeSystem/v2-0916",
            "code" : "F",
            "display" : "Patient was fasting prior to the procedure."
          }]
        }
      },
      "container" : [{
        "type" : {
          "coding" : [{
            "system" : "http://snomed.info/sct",
            "code" : "706053007",
            "display" : "General specimen container (physical object)"
          }]
        }
      }]
    }
  },
  {
    "fullUrl" : "http://example.com/fhir/ServiceRequest/service-request-potassium-serum",
    "resource" : {
      "resourceType" : "ServiceRequest",
      "id" : "service-request-potassium-serum",
      "meta" : {
        "profile" : ["http://fhir.ch/ig/ch-lab-order/StructureDefinition/ch-lab-order-SR"]
      },
      "text" : {
        "status" : "generated",
        "div" : "<div xmlns=\"http://www.w3.org/1999/xhtml\"><a name=\"ServiceRequest_service-request-potassium-serum\"> </a><p class=\"res-header-id\"><b>Generated Narrative: ServiceRequest service-request-potassium-serum</b></p><a name=\"service-request-potassium-serum\"> </a><a name=\"hcservice-request-potassium-serum\"> </a><a name=\"service-request-potassium-serum-en-US\"> </a><div style=\"display: inline-block; background-color: #d9e0e7; padding: 6px; margin: 4px; border: 1px solid #8da1b4; border-radius: 5px; line-height: 60%\"><p style=\"margin-bottom: 0px\"/><p style=\"margin-bottom: 0px\">Profile: <a href=\"StructureDefinition-ch-lab-order-SR.html\">CH LAB-Order-SR</a></p></div><p><b>identifier</b>: Placer Identifier/Y274589</p><p><b>instantiatesCanonical</b>: <a href=\"ActivityDefinition-procedure-potassium-serum.html\">Procedure - potassium measurement on in vitro blood serum</a></p><p><b>basedOn</b>: <a href=\"ServiceRequest-service-request-electrolytes-serum.html\">ServiceRequest: identifier = Placer Identifier: Y274589; instantiatesCanonical = http://fhir.ch/ig/ch-lab-order/ActivityDefinition/procedure-chloride-serum; status = active; intent = original-order; priority = urgent; reasonCode = Deep venous thrombosis of lower extremity (disorder)</a></p><p><b>status</b>: Active</p><p><b>intent</b>: Original Order</p><p><b>priority</b>: Urgent</p><p><b>code</b>: <span title=\"Codes:{http://loinc.org 2823-3}\">Potassium [Moles/volume] in Serum or Plasma</span></p><p><b>subject</b>: <a href=\"Patient-HansGuggindieluft.html\">Hans Guggindieluft  Male, DoB: 1981-01-01 ( urn:oid:2.16.756.5.30.1.123.100.1.1.1#80756011110123400009)</a></p><p><b>requester</b>: <a href=\"PractitionerRole-MarcMustermannGruppenpraxis.html\">PractitionerRole</a></p><p><b>reasonCode</b>: <span title=\"Codes:{http://snomed.info/sct 90688005}\">Chronic renal failure syndrome (disorder)</span></p><p><b>specimen</b>: <a href=\"Specimen-Serum.html\">Serum specimen</a></p></div>"
      },
      "identifier" : [{
        "type" : {
          "coding" : [{
            "system" : "http://terminology.hl7.org/CodeSystem/v2-0203",
            "code" : "PLAC",
            "display" : "Placer Identifier"
          }]
        },
        "system" : "urn:oid:2.16.756.5.30.1.123.100.2.1.1",
        "value" : "Y274589"
      }],
      "instantiatesCanonical" : ["http://fhir.ch/ig/ch-lab-order/ActivityDefinition/procedure-potassium-serum"],
      "basedOn" : [{
        "reference" : "ServiceRequest/service-request-electrolytes-serum"
      }],
      "status" : "active",
      "intent" : "original-order",
      "priority" : "urgent",
      "code" : {
        "coding" : [{
          "system" : "http://loinc.org",
          "code" : "2823-3",
          "display" : "Potassium [Moles/volume] in Serum or Plasma"
        }]
      },
      "subject" : {
        "reference" : "Patient/HansGuggindieluft"
      },
      "requester" : {
        "reference" : "PractitionerRole/MarcMustermannGruppenpraxis"
      },
      "reasonCode" : [{
        "coding" : [{
          "system" : "http://snomed.info/sct",
          "code" : "90688005"
        }],
        "text" : "Chronic renal failure syndrome (disorder)"
      }],
      "specimen" : [{
        "reference" : "Specimen/Serum",
        "display" : "Serum specimen"
      }]
    }
  }]
}