{
  "resourceType" : "Bundle",
  "id" : "example-document",
  "identifier" : {
    "system" : "urn:ietf:rfc:3986",
    "value" : "urn:uuid:26d3dff7-ab05-4737-a49c-5eccd3359505"
  },
  "type" : "document",
  "timestamp" : "2025-03-05T12:00:00Z",
  "entry" : [{
    "fullUrl" : "urn:uuid:acc39a67-5f62-4170-ad05-d7cb70f43ea6",
    "resource" : {
      "resourceType" : "Composition",
      "id" : "acc39a67-5f62-4170-ad05-d7cb70f43ea6",
      "text" : {
        "status" : "generated",
        "div" : "<div xmlns=\"http://www.w3.org/1999/xhtml\"><a name=\"Composition_acc39a67-5f62-4170-ad05-d7cb70f43ea6\"> </a><p class=\"res-header-id\"><b>Generated Narrative: Composition acc39a67-5f62-4170-ad05-d7cb70f43ea6</b></p><a name=\"acc39a67-5f62-4170-ad05-d7cb70f43ea6\"> </a><a name=\"hcacc39a67-5f62-4170-ad05-d7cb70f43ea6\"> </a><a name=\"acc39a67-5f62-4170-ad05-d7cb70f43ea6-en-US\"> </a><p><b>status</b>: Final</p><p><b>type</b>: <span title=\"Codes:{http://loinc.org 34133-9}\">Summary of episode note</span></p><p><b>date</b>: 2025-03-05 12:00:00+0000</p><p><b>author</b>: <a href=\"Bundle-example-document.html#urn-uuid-a8d35919-6883-4312-8b26-11b964c0e0aa\">Bundle: identifier = UUID:26d3dff7-ab05-4737-a49c-5eccd3359505; type = document; timestamp = 2025-03-05 12:00:00+0000</a></p><p><b>title</b>: Clinical Summary Document</p></div>"
      },
      "status" : "final",
      "type" : {
        "coding" : [{
          "system" : "http://loinc.org",
          "code" : "34133-9",
          "display" : "Summary of episode note"
        }]
      },
      "subject" : {
        "reference" : "urn:uuid:146d8255-8963-4bdd-b69c-faf9dc7455ca"
      },
      "date" : "2025-03-05T12:00:00Z",
      "author" : [{
        "reference" : "urn:uuid:a8d35919-6883-4312-8b26-11b964c0e0aa"
      }],
      "title" : "Clinical Summary Document",
      "section" : [{
        "title" : "Vital Signs",
        "code" : {
          "coding" : [{
            "system" : "http://loinc.org",
            "code" : "8716-3",
            "display" : "Vital signs"
          }]
        },
        "entry" : [{
          "reference" : "urn:uuid:e9690e11-fd84-40f3-acc0-e833ad149259"
        }]
      }]
    }
  },
  {
    "fullUrl" : "urn:uuid:146d8255-8963-4bdd-b69c-faf9dc7455ca",
    "resource" : {
      "resourceType" : "Patient",
      "id" : "146d8255-8963-4bdd-b69c-faf9dc7455ca",
      "text" : {
        "status" : "generated",
        "div" : "<div xmlns=\"http://www.w3.org/1999/xhtml\"><a name=\"Patient_146d8255-8963-4bdd-b69c-faf9dc7455ca\"> </a><p class=\"res-header-id\"><b>Generated Narrative: Patient 146d8255-8963-4bdd-b69c-faf9dc7455ca</b></p><a name=\"146d8255-8963-4bdd-b69c-faf9dc7455ca\"> </a><a name=\"hc146d8255-8963-4bdd-b69c-faf9dc7455ca\"> </a><a name=\"146d8255-8963-4bdd-b69c-faf9dc7455ca-en-US\"> </a><p style=\"border: 1px #661aff solid; background-color: #e6e6ff; padding: 10px;\">John Doe  Male, DoB: 1980-01-01</p><hr/></div>"
      },
      "name" : [{
        "family" : "Doe",
        "given" : ["John"]
      }],
      "gender" : "male",
      "birthDate" : "1980-01-01"
    }
  },
  {
    "fullUrl" : "urn:uuid:a8d35919-6883-4312-8b26-11b964c0e0aa",
    "resource" : {
      "resourceType" : "Practitioner",
      "id" : "a8d35919-6883-4312-8b26-11b964c0e0aa",
      "text" : {
        "status" : "generated",
        "div" : "<div xmlns=\"http://www.w3.org/1999/xhtml\"><a name=\"Practitioner_a8d35919-6883-4312-8b26-11b964c0e0aa\"> </a><p class=\"res-header-id\"><b>Generated Narrative: Practitioner a8d35919-6883-4312-8b26-11b964c0e0aa</b></p><a name=\"a8d35919-6883-4312-8b26-11b964c0e0aa\"> </a><a name=\"hca8d35919-6883-4312-8b26-11b964c0e0aa\"> </a><a name=\"a8d35919-6883-4312-8b26-11b964c0e0aa-en-US\"> </a><p><b>name</b>: Alice Smith </p></div>"
      },
      "name" : [{
        "family" : "Smith",
        "given" : ["Alice"]
      }]
    }
  },
  {
    "fullUrl" : "urn:uuid:e9690e11-fd84-40f3-acc0-e833ad149259",
    "resource" : {
      "resourceType" : "Observation",
      "id" : "e9690e11-fd84-40f3-acc0-e833ad149259",
      "text" : {
        "status" : "generated",
        "div" : "<div xmlns=\"http://www.w3.org/1999/xhtml\"><a name=\"Observation_e9690e11-fd84-40f3-acc0-e833ad149259\"> </a><p class=\"res-header-id\"><b>Generated Narrative: Observation e9690e11-fd84-40f3-acc0-e833ad149259</b></p><a name=\"e9690e11-fd84-40f3-acc0-e833ad149259\"> </a><a name=\"hce9690e11-fd84-40f3-acc0-e833ad149259\"> </a><a name=\"e9690e11-fd84-40f3-acc0-e833ad149259-en-US\"> </a><p><b>status</b>: Final</p><p><b>category</b>: <span title=\"Codes:{http://terminology.hl7.org/CodeSystem/observation-category vital-signs}\">Vital Signs</span></p><p><b>code</b>: <span title=\"Codes:{http://loinc.org 85354-9}\">Blood pressure panel with all children optional</span></p><p><b>subject</b>: <a href=\"Bundle-example-document.html#urn-uuid-146d8255-8963-4bdd-b69c-faf9dc7455ca\">Bundle: identifier = UUID:26d3dff7-ab05-4737-a49c-5eccd3359505; type = document; timestamp = 2025-03-05 12:00:00+0000</a></p><p><b>effective</b>: 2025-03-05 10:00:00+0000</p><p><b>performer</b>: <a href=\"Bundle-example-document.html#urn-uuid-a8d35919-6883-4312-8b26-11b964c0e0aa\">Bundle: identifier = UUID:26d3dff7-ab05-4737-a49c-5eccd3359505; type = document; timestamp = 2025-03-05 12:00:00+0000</a></p><blockquote><p><b>component</b></p><p><b>code</b>: <span title=\"Codes:{http://loinc.org 8480-6}\">Systolic blood pressure</span></p><p><b>value</b>: 120 mmHg<span style=\"background: LightGoldenRodYellow\"> (Details: UCUM  codemm[Hg] = 'mm[Hg]')</span></p></blockquote><blockquote><p><b>component</b></p><p><b>code</b>: <span title=\"Codes:{http://loinc.org 8462-4}\">Diastolic blood pressure</span></p><p><b>value</b>: 80 mmHg<span style=\"background: LightGoldenRodYellow\"> (Details: UCUM  codemm[Hg] = 'mm[Hg]')</span></p></blockquote></div>"
      },
      "status" : "final",
      "category" : [{
        "coding" : [{
          "system" : "http://terminology.hl7.org/CodeSystem/observation-category",
          "code" : "vital-signs",
          "display" : "Vital Signs"
        }]
      }],
      "code" : {
        "coding" : [{
          "system" : "http://loinc.org",
          "code" : "85354-9",
          "display" : "Blood pressure panel with all children optional"
        }]
      },
      "subject" : {
        "reference" : "urn:uuid:146d8255-8963-4bdd-b69c-faf9dc7455ca"
      },
      "effectiveDateTime" : "2025-03-05T10:00:00Z",
      "performer" : [{
        "reference" : "urn:uuid:a8d35919-6883-4312-8b26-11b964c0e0aa"
      }],
      "component" : [{
        "code" : {
          "coding" : [{
            "system" : "http://loinc.org",
            "code" : "8480-6",
            "display" : "Systolic blood pressure"
          }]
        },
        "valueQuantity" : {
          "value" : 120,
          "unit" : "mmHg",
          "system" : "http://unitsofmeasure.org",
          "code" : "mm[Hg]"
        }
      },
      {
        "code" : {
          "coding" : [{
            "system" : "http://loinc.org",
            "code" : "8462-4",
            "display" : "Diastolic blood pressure"
          }]
        },
        "valueQuantity" : {
          "value" : 80,
          "unit" : "mmHg",
          "system" : "http://unitsofmeasure.org",
          "code" : "mm[Hg]"
        }
      }]
    }
  }]
}