{
  "resourceType": "Bundle",
  "id": "MessageUC181521",
  "meta": {
    "profile": [
      "http://fhir.ch/ig/swissnoso/StructureDefinition/swissnoso-message-cauti-surveillance"
    ]
  },
  "type": "message",
  "entry": [
    {
      "fullUrl": "http://example.ch/fhir/MessageHeader/MessageHeaderUC181521",
      "resource": {
        "resourceType": "MessageHeader",
        "id": "MessageHeaderUC181521",
        "meta": {
          "profile": [
            "http://fhir.ch/ig/swissnoso/StructureDefinition/swissnoso-messageheader-cauti-surveillance"
          ]
        },
        "text": {
          "status": "generated",
          "div": "<div xmlns=\"http://www.w3.org/1999/xhtml\"><p><b>Generated Narrative</b></p><div style=\"display: inline-block; background-color: #d9e0e7; padding: 6px; margin: 4px; border: 1px solid #8da1b4; border-radius: 5px; line-height: 60%\"><p style=\"margin-bottom: 0px\">Resource \"MessageHeaderUC181521\" </p><p style=\"margin-bottom: 0px\">Profile: <a href=\"StructureDefinition-swissnoso-messageheader-cauti-surveillance.html\">Swissnoso MessageHeader CAUTI Surveillance</a></p></div><p><b>event</b>: <a href=\"http://fhir.ch/ig/swissnoso/cauti-surveillance\">http://fhir.ch/ig/swissnoso/cauti-surveillance</a></p><h3>Sources</h3><table class=\"grid\"><tr><td>-</td><td><b>Endpoint</b></td></tr><tr><td>*</td><td><a href=\"http://example.ch/fhir\">http://example.ch/fhir</a></td></tr></table><p><b>focus</b>: </p><ul><li><a href=\"#Procedure_InsertCatheter1-20210706-181521210706\">See above (Procedure/InsertCatheter1-20210706-181521210706)</a></li><li><a href=\"#Procedure_InsertCatheter2-20210709-181521210706\">See above (Procedure/InsertCatheter2-20210709-181521210706)</a></li><li><a href=\"#Procedure_RemoveCatheter1-20210709-181521210706\">See above (Procedure/RemoveCatheter1-20210709-181521210706)</a></li><li><a href=\"#Procedure_RemoveCatheter2-20210710-181521210706\">See above (Procedure/RemoveCatheter2-20210710-181521210706)</a></li><li><a href=\"#Procedure_Microbiology-20210706-181521210706\">See above (Procedure/Microbiology-20210706-181521210706)</a></li><li><a href=\"#Observation_NumberOfDifferentGerms-20210706-181521210706\">See above (Observation/NumberOfDifferentGerms-20210706-181521210706)</a></li></ul></div>"
        },
        "eventUri": "http://fhir.ch/ig/swissnoso/cauti-surveillance",
        "source": {
          "endpoint": "http://example.ch/fhir"
        },
        "focus": [
          {
            "reference": "Procedure/InsertCatheter1-20210706-181521210706"
          },
          {
            "reference": "Procedure/InsertCatheter2-20210709-181521210706"
          },
          {
            "reference": "Procedure/RemoveCatheter1-20210709-181521210706"
          },
          {
            "reference": "Procedure/RemoveCatheter2-20210710-181521210706"
          },
          {
            "reference": "Procedure/Microbiology-20210706-181521210706"
          },
          {
            "reference": "Observation/NumberOfDifferentGerms-20210706-181521210706"
          }
        ]
      }
    },
    {
      "fullUrl": "http://example.ch/fhir/Procedure/InsertCatheter1-20210706-181521210706",
      "resource": {
        "resourceType": "Procedure",
        "id": "InsertCatheter1-20210706-181521210706",
        "meta": {
          "profile": [
            "http://fhir.ch/ig/swissnoso/StructureDefinition/swissnoso-procedure-insert-catheter"
          ]
        },
        "text": {
          "status": "extensions",
          "div": "<div xmlns=\"http://www.w3.org/1999/xhtml\"><p><b>Generated Narrative</b></p><div style=\"display: inline-block; background-color: #d9e0e7; padding: 6px; margin: 4px; border: 1px solid #8da1b4; border-radius: 5px; line-height: 60%\"><p style=\"margin-bottom: 0px\">Resource \"InsertCatheter1-20210706-181521210706\" </p><p style=\"margin-bottom: 0px\">Profile: <a href=\"StructureDefinition-swissnoso-procedure-insert-catheter.html\">Swissnoso Procedure Insert Catheter</a></p></div><p><b>Swissnoso Sequence Number</b>: 1</p><p><b>Swissnoso Transurethral Procedure</b>: false</p><p><b>status</b>: completed</p><p><b>code</b>: Catheterization of urinary bladder (procedure) <span style=\"background: LightGoldenRodYellow; margin: 4px; border: 1px solid khaki\"> (<a href=\"https://browser.ihtsdotools.org/\">SNOMED CT</a>#410024004)</span></p><p><b>subject</b>: <a href=\"#Patient_FridolinMueller\">See above (Patient/FridolinMueller)</a></p><p><b>encounter</b>: <a href=\"#Encounter_Encounter-181521210706\">See above (Encounter/Encounter-181521210706)</a></p><p><b>performed</b>: 2021-07-06</p><p><b>location</b>: <a href=\"#Location_NotfallstationTannenwald\">See above (Location/NotfallstationTannenwald)</a></p><p><b>reasonCode</b>: Decubitalulzera plus Inkontinenz <span style=\"background: LightGoldenRodYellow; margin: 4px; border: 1px solid khaki\"> (<a href=\"CodeSystem-swissnoso-indication.html\">Swissnoso Indication</a>#4)</span></p></div>"
        },
        "extension": [
          {
            "url": "http://fhir.ch/ig/swissnoso/StructureDefinition/swissnoso-sequence-number",
            "valuePositiveInt": 1
          },
          {
            "url": "http://fhir.ch/ig/swissnoso/StructureDefinition/swissnoso-transurethral-procedure",
            "valueBoolean": false
          }
        ],
        "status": "completed",
        "code": {
          "coding": [
            {
              "system": "http://snomed.info/sct",
              "code": "410024004",
              "display": "Catheterization of urinary bladder (procedure)"
            }
          ]
        },
        "subject": {
          "reference": "Patient/FridolinMueller"
        },
        "encounter": {
          "reference": "Encounter/Encounter-181521210706"
        },
        "performedDateTime": "2021-07-06",
        "location": {
          "reference": "Location/NotfallstationTannenwald"
        },
        "reasonCode": [
          {
            "coding": [
              {
                "system": "http://fhir.ch/ig/swissnoso/CodeSystem/swissnoso-indication",
                "code": "4",
                "display": "Decubitalulzera plus Inkontinenz"
              }
            ]
          }
        ]
      }
    },
    {
      "fullUrl": "http://example.ch/fhir/Procedure/RemoveCatheter1-20210709-181521210706",
      "resource": {
        "resourceType": "Procedure",
        "id": "RemoveCatheter1-20210709-181521210706",
        "meta": {
          "profile": [
            "http://fhir.ch/ig/swissnoso/StructureDefinition/swissnoso-procedure-remove-catheter"
          ]
        },
        "text": {
          "status": "generated",
          "div": "<div xmlns=\"http://www.w3.org/1999/xhtml\"><p><b>Generated Narrative</b></p><div style=\"display: inline-block; background-color: #d9e0e7; padding: 6px; margin: 4px; border: 1px solid #8da1b4; border-radius: 5px; line-height: 60%\"><p style=\"margin-bottom: 0px\">Resource \"RemoveCatheter1-20210709-181521210706\" </p><p style=\"margin-bottom: 0px\">Profile: <a href=\"StructureDefinition-swissnoso-procedure-remove-catheter.html\">Swissnoso Procedure Remove Catheter</a></p></div><p><b>status</b>: completed</p><p><b>code</b>: Removal of urinary bladder catheter (procedure) <span style=\"background: LightGoldenRodYellow; margin: 4px; border: 1px solid khaki\"> (<a href=\"https://browser.ihtsdotools.org/\">SNOMED CT</a>#43748006)</span></p><p><b>subject</b>: <a href=\"#Patient_FridolinMueller\">See above (Patient/FridolinMueller)</a></p><p><b>encounter</b>: <a href=\"#Encounter_Encounter-181521210706\">See above (Encounter/Encounter-181521210706)</a></p><p><b>performed</b>: 2021-07-09</p><p><b>reasonReference</b>: <a href=\"#Procedure_InsertCatheter1-20210706-181521210706\">See above (Procedure/InsertCatheter1-20210706-181521210706)</a></p></div>"
        },
        "status": "completed",
        "code": {
          "coding": [
            {
              "system": "http://snomed.info/sct",
              "code": "43748006",
              "display": "Removal of urinary bladder catheter (procedure)"
            }
          ]
        },
        "subject": {
          "reference": "Patient/FridolinMueller"
        },
        "encounter": {
          "reference": "Encounter/Encounter-181521210706"
        },
        "performedDateTime": "2021-07-09",
        "reasonReference": [
          {
            "reference": "Procedure/InsertCatheter1-20210706-181521210706"
          }
        ]
      }
    },
    {
      "fullUrl": "http://example.ch/fhir/Procedure/InsertCatheter2-20210709-181521210706",
      "resource": {
        "resourceType": "Procedure",
        "id": "InsertCatheter2-20210709-181521210706",
        "meta": {
          "profile": [
            "http://fhir.ch/ig/swissnoso/StructureDefinition/swissnoso-procedure-insert-catheter"
          ]
        },
        "text": {
          "status": "extensions",
          "div": "<div xmlns=\"http://www.w3.org/1999/xhtml\"><p><b>Generated Narrative</b></p><div style=\"display: inline-block; background-color: #d9e0e7; padding: 6px; margin: 4px; border: 1px solid #8da1b4; border-radius: 5px; line-height: 60%\"><p style=\"margin-bottom: 0px\">Resource \"InsertCatheter2-20210709-181521210706\" </p><p style=\"margin-bottom: 0px\">Profile: <a href=\"StructureDefinition-swissnoso-procedure-insert-catheter.html\">Swissnoso Procedure Insert Catheter</a></p></div><p><b>Swissnoso Sequence Number</b>: 2</p><p><b>Swissnoso Transurethral Procedure</b>: false</p><p><b>status</b>: completed</p><p><b>code</b>: Catheterization of urinary bladder (procedure) <span style=\"background: LightGoldenRodYellow; margin: 4px; border: 1px solid khaki\"> (<a href=\"https://browser.ihtsdotools.org/\">SNOMED CT</a>#410024004)</span></p><p><b>subject</b>: <a href=\"#Patient_FridolinMueller\">See above (Patient/FridolinMueller)</a></p><p><b>encounter</b>: <a href=\"#Encounter_Encounter-181521210706\">See above (Encounter/Encounter-181521210706)</a></p><p><b>performed</b>: 2021-07-09</p><p><b>location</b>: <a href=\"#Location_BettenstationTannenwald\">See above (Location/BettenstationTannenwald)</a></p><p><b>reasonCode</b>: Harnverhalt <span style=\"background: LightGoldenRodYellow; margin: 4px; border: 1px solid khaki\"> (<a href=\"CodeSystem-swissnoso-indication.html\">Swissnoso Indication</a>#1)</span></p></div>"
        },
        "extension": [
          {
            "url": "http://fhir.ch/ig/swissnoso/StructureDefinition/swissnoso-sequence-number",
            "valuePositiveInt": 2
          },
          {
            "url": "http://fhir.ch/ig/swissnoso/StructureDefinition/swissnoso-transurethral-procedure",
            "valueBoolean": false
          }
        ],
        "status": "completed",
        "code": {
          "coding": [
            {
              "system": "http://snomed.info/sct",
              "code": "410024004",
              "display": "Catheterization of urinary bladder (procedure)"
            }
          ]
        },
        "subject": {
          "reference": "Patient/FridolinMueller"
        },
        "encounter": {
          "reference": "Encounter/Encounter-181521210706"
        },
        "performedDateTime": "2021-07-09",
        "location": {
          "reference": "Location/BettenstationTannenwald"
        },
        "reasonCode": [
          {
            "coding": [
              {
                "system": "http://fhir.ch/ig/swissnoso/CodeSystem/swissnoso-indication",
                "code": "1",
                "display": "Harnverhalt"
              }
            ]
          }
        ]
      }
    },
    {
      "fullUrl": "http://example.ch/fhir/Procedure/RemoveCatheter2-20210710-181521210706",
      "resource": {
        "resourceType": "Procedure",
        "id": "RemoveCatheter2-20210710-181521210706",
        "meta": {
          "profile": [
            "http://fhir.ch/ig/swissnoso/StructureDefinition/swissnoso-procedure-remove-catheter"
          ]
        },
        "text": {
          "status": "generated",
          "div": "<div xmlns=\"http://www.w3.org/1999/xhtml\"><p><b>Generated Narrative</b></p><div style=\"display: inline-block; background-color: #d9e0e7; padding: 6px; margin: 4px; border: 1px solid #8da1b4; border-radius: 5px; line-height: 60%\"><p style=\"margin-bottom: 0px\">Resource \"RemoveCatheter2-20210710-181521210706\" </p><p style=\"margin-bottom: 0px\">Profile: <a href=\"StructureDefinition-swissnoso-procedure-remove-catheter.html\">Swissnoso Procedure Remove Catheter</a></p></div><p><b>status</b>: completed</p><p><b>code</b>: Removal of urinary bladder catheter (procedure) <span style=\"background: LightGoldenRodYellow; margin: 4px; border: 1px solid khaki\"> (<a href=\"https://browser.ihtsdotools.org/\">SNOMED CT</a>#43748006)</span></p><p><b>subject</b>: <a href=\"#Patient_FridolinMueller\">See above (Patient/FridolinMueller)</a></p><p><b>encounter</b>: <a href=\"#Encounter_Encounter-181521210706\">See above (Encounter/Encounter-181521210706)</a></p><p><b>performed</b>: 2021-07-10</p><p><b>reasonReference</b>: <a href=\"#Procedure_InsertCatheter2-20210709-181521210706\">See above (Procedure/InsertCatheter2-20210709-181521210706)</a></p></div>"
        },
        "status": "completed",
        "code": {
          "coding": [
            {
              "system": "http://snomed.info/sct",
              "code": "43748006",
              "display": "Removal of urinary bladder catheter (procedure)"
            }
          ]
        },
        "subject": {
          "reference": "Patient/FridolinMueller"
        },
        "encounter": {
          "reference": "Encounter/Encounter-181521210706"
        },
        "performedDateTime": "2021-07-10",
        "reasonReference": [
          {
            "reference": "Procedure/InsertCatheter2-20210709-181521210706"
          }
        ]
      }
    },
    {
      "fullUrl": "http://example.ch/fhir/Patient/FridolinMueller",
      "resource": {
        "resourceType": "Patient",
        "id": "FridolinMueller",
        "meta": {
          "profile": [
            "http://fhir.ch/ig/swissnoso/StructureDefinition/swissnoso-patient"
          ]
        },
        "text": {
          "status": "generated",
          "div": "<div xmlns=\"http://www.w3.org/1999/xhtml\"><p><b>Generated Narrative</b></p><div style=\"display: inline-block; background-color: #d9e0e7; padding: 6px; margin: 4px; border: 1px solid #8da1b4; border-radius: 5px; line-height: 60%\"><p style=\"margin-bottom: 0px\">Resource \"FridolinMueller\" </p><p style=\"margin-bottom: 0px\">Profile: <a href=\"StructureDefinition-swissnoso-patient.html\">Swissnoso Patient</a></p></div><p><b>identifier</b>: Medical record number: 181521</p><p><b>gender</b>: male</p><p><b>birthDate</b>: 1931</p></div>"
        },
        "identifier": [
          {
            "type": {
              "coding": [
                {
                  "system": "http://terminology.hl7.org/CodeSystem/v2-0203",
                  "code": "MR"
                }
              ]
            },
            "system": "http://fhir.tannenwald.ch/pid",
            "value": "181521"
          }
        ],
        "gender": "male",
        "birthDate": "1931"
      }
    },
    {
      "fullUrl": "http://example.ch/fhir/Encounter/Encounter-181521210706",
      "resource": {
        "resourceType": "Encounter",
        "id": "Encounter-181521210706",
        "meta": {
          "profile": [
            "http://fhir.ch/ig/swissnoso/StructureDefinition/swissnoso-encounter"
          ]
        },
        "text": {
          "status": "extensions",
          "div": "<div xmlns=\"http://www.w3.org/1999/xhtml\"><p><b>Generated Narrative</b></p><div style=\"display: inline-block; background-color: #d9e0e7; padding: 6px; margin: 4px; border: 1px solid #8da1b4; border-radius: 5px; line-height: 60%\"><p style=\"margin-bottom: 0px\">Resource \"Encounter-181521210706\" </p><p style=\"margin-bottom: 0px\">Profile: <a href=\"StructureDefinition-swissnoso-encounter.html\">Swissnoso Encounter</a></p></div><blockquote><p><b>Swissnoso Organizational Unit</b></p><p><b>value</b>: Medizin (Details: http://fhir.ch/ig/swissnoso/CodeSystem/ecdc-ward-specialty code MED = 'Medicine', stated as 'Medizin')</p></blockquote><p><b>identifier</b>: Visit number: 181521210706</p><p><b>status</b>: finished</p><p><b>class</b>: inpatient encounter (Details: http://terminology.hl7.org/CodeSystem/v3-ActCode code IMP = 'inpatient encounter', stated as 'inpatient encounter')</p><p><b>subject</b>: <a href=\"#Patient_FridolinMueller\">See above (Patient/FridolinMueller)</a></p><p><b>period</b>: 2021-07-06 --&gt; 2021-07-10</p><p><b>serviceProvider</b>: <a href=\"#Organization_SpitalTannenwald\">See above (Organization/SpitalTannenwald)</a></p></div>"
        },
        "extension": [
          {
            "extension": [
              {
                "url": "unit",
                "valueCoding": {
                  "system": "http://fhir.ch/ig/swissnoso/CodeSystem/ecdc-ward-specialty",
                  "code": "MED",
                  "display": "Medizin"
                }
              }
            ],
            "url": "http://fhir.ch/ig/swissnoso/StructureDefinition/swissnoso-organizational-unit"
          }
        ],
        "identifier": [
          {
            "type": {
              "coding": [
                {
                  "system": "http://terminology.hl7.org/CodeSystem/v2-0203",
                  "code": "VN"
                }
              ]
            },
            "system": "http://fhir.tannenwald.ch/fid",
            "value": "181521210706"
          }
        ],
        "status": "finished",
        "class": {
          "system": "http://terminology.hl7.org/CodeSystem/v3-ActCode",
          "code": "IMP",
          "display": "inpatient encounter"
        },
        "subject": {
          "reference": "Patient/FridolinMueller"
        },
        "period": {
          "start": "2021-07-06",
          "end": "2021-07-10"
        },
        "serviceProvider": {
          "reference": "Organization/SpitalTannenwald"
        }
      }
    },
    {
      "fullUrl": "http://example.ch/fhir/Organization/SpitalTannenwald",
      "resource": {
        "resourceType": "Organization",
        "id": "SpitalTannenwald",
        "meta": {
          "profile": [
            "http://fhir.ch/ig/swissnoso/StructureDefinition/swissnoso-organization"
          ]
        },
        "text": {
          "status": "generated",
          "div": "<div xmlns=\"http://www.w3.org/1999/xhtml\"><p><b>Generated Narrative</b></p><div style=\"display: inline-block; background-color: #d9e0e7; padding: 6px; margin: 4px; border: 1px solid #8da1b4; border-radius: 5px; line-height: 60%\"><p style=\"margin-bottom: 0px\">Resource \"SpitalTannenwald\" </p><p style=\"margin-bottom: 0px\">Profile: <a href=\"StructureDefinition-swissnoso-organization.html\">Swissnoso Organization</a></p></div><p><b>identifier</b>: id: 1234</p></div>"
        },
        "identifier": [
          {
            "system": "http://fhir.swissnoso.ch/clinic-number",
            "value": "1234"
          }
        ]
      }
    },
    {
      "fullUrl": "http://example.ch/fhir/Location/NotfallstationTannenwald",
      "resource": {
        "resourceType": "Location",
        "id": "NotfallstationTannenwald",
        "meta": {
          "profile": [
            "http://fhir.ch/ig/swissnoso/StructureDefinition/swissnoso-location"
          ]
        },
        "text": {
          "status": "generated",
          "div": "<div xmlns=\"http://www.w3.org/1999/xhtml\"><p><b>Generated Narrative</b></p><div style=\"display: inline-block; background-color: #d9e0e7; padding: 6px; margin: 4px; border: 1px solid #8da1b4; border-radius: 5px; line-height: 60%\"><p style=\"margin-bottom: 0px\">Resource \"NotfallstationTannenwald\" </p><p style=\"margin-bottom: 0px\">Profile: <a href=\"StructureDefinition-swissnoso-location.html\">Swissnoso Location</a></p></div><p><b>name</b>: Notfallstation Tannenwald</p><p><b>physicalType</b>: Notfallstation <span style=\"background: LightGoldenRodYellow; margin: 4px; border: 1px solid khaki\"> (<a href=\"CodeSystem-swissnoso-procedure-location.html\">Swissnoso Procedure Location</a>#1)</span></p><p><b>managingOrganization</b>: <a href=\"#Organization_SpitalTannenwald\">See above (Organization/SpitalTannenwald)</a></p></div>"
        },
        "name": "Notfallstation Tannenwald",
        "physicalType": {
          "coding": [
            {
              "system": "http://fhir.ch/ig/swissnoso/CodeSystem/swissnoso-procedure-location",
              "code": "1",
              "display": "Notfallstation"
            }
          ]
        },
        "managingOrganization": {
          "reference": "Organization/SpitalTannenwald"
        }
      }
    },
    {
      "fullUrl": "http://example.ch/fhir/Location/BettenstationTannenwald",
      "resource": {
        "resourceType": "Location",
        "id": "BettenstationTannenwald",
        "meta": {
          "profile": [
            "http://fhir.ch/ig/swissnoso/StructureDefinition/swissnoso-location"
          ]
        },
        "text": {
          "status": "generated",
          "div": "<div xmlns=\"http://www.w3.org/1999/xhtml\"><p><b>Generated Narrative</b></p><div style=\"display: inline-block; background-color: #d9e0e7; padding: 6px; margin: 4px; border: 1px solid #8da1b4; border-radius: 5px; line-height: 60%\"><p style=\"margin-bottom: 0px\">Resource \"BettenstationTannenwald\" </p><p style=\"margin-bottom: 0px\">Profile: <a href=\"StructureDefinition-swissnoso-location.html\">Swissnoso Location</a></p></div><p><b>name</b>: Bettenstation Tannenwald</p><p><b>physicalType</b>: Bettenstation <span style=\"background: LightGoldenRodYellow; margin: 4px; border: 1px solid khaki\"> (<a href=\"CodeSystem-swissnoso-procedure-location.html\">Swissnoso Procedure Location</a>#2)</span></p><p><b>managingOrganization</b>: <a href=\"#Organization_SpitalTannenwald\">See above (Organization/SpitalTannenwald)</a></p></div>"
        },
        "name": "Bettenstation Tannenwald",
        "physicalType": {
          "coding": [
            {
              "system": "http://fhir.ch/ig/swissnoso/CodeSystem/swissnoso-procedure-location",
              "code": "2",
              "display": "Bettenstation"
            }
          ]
        },
        "managingOrganization": {
          "reference": "Organization/SpitalTannenwald"
        }
      }
    },
    {
      "fullUrl": "http://example.ch/fhir/Observation/Symptoms-20210706-181521210706",
      "resource": {
        "resourceType": "Observation",
        "id": "Symptoms-20210706-181521210706",
        "meta": {
          "profile": [
            "http://fhir.ch/ig/swissnoso/StructureDefinition/swissnoso-observation-symptoms"
          ]
        },
        "text": {
          "status": "generated",
          "div": "<div xmlns=\"http://www.w3.org/1999/xhtml\"><p><b>Generated Narrative</b></p><div style=\"display: inline-block; background-color: #d9e0e7; padding: 6px; margin: 4px; border: 1px solid #8da1b4; border-radius: 5px; line-height: 60%\"><p style=\"margin-bottom: 0px\">Resource \"Symptoms-20210706-181521210706\" </p><p style=\"margin-bottom: 0px\">Profile: <a href=\"StructureDefinition-swissnoso-observation-symptoms.html\">Swissnoso Observation Symptoms</a></p></div><p><b>status</b>: final</p><p><b>code</b>: Symptom <span style=\"background: LightGoldenRodYellow; margin: 4px; border: 1px solid khaki\"> (<a href=\"https://loinc.org/\">LOINC</a>#75325-1)</span></p><p><b>subject</b>: <a href=\"#Patient_FridolinMueller\">See above (Patient/FridolinMueller)</a></p><p><b>encounter</b>: <a href=\"#Encounter_Encounter-181521210706\">See above (Encounter/Encounter-181521210706)</a></p><p><b>effective</b>: 2021-07-06</p><p><b>value</b>: true</p><p><b>hasMember</b>: </p><ul><li><a href=\"#Observation_Fever-20210706-181521210706\">See above (Observation/Fever-20210706-181521210706)</a></li><li><a href=\"#Observation_SuprapubicTenderness-20210706-181521210706\">See above (Observation/SuprapubicTenderness-20210706-181521210706)</a></li><li><a href=\"#Observation_NoAnglePainOrTenderness-20210706-181521210706\">See above (Observation/NoAnglePainOrTenderness-20210706-181521210706)</a></li><li><a href=\"#Observation_NoUrinaryUrgency-20210706-181521210706\">See above (Observation/NoUrinaryUrgency-20210706-181521210706)</a></li><li><a href=\"#Observation_NoUrinaryFrequency-20210706-181521210706\">See above (Observation/NoUrinaryFrequency-20210706-181521210706)</a></li><li><a href=\"#Observation_NoDysuria-20210706-181521210706\">See above (Observation/NoDysuria-20210706-181521210706)</a></li></ul></div>"
        },
        "status": "final",
        "code": {
          "coding": [
            {
              "system": "http://loinc.org",
              "code": "75325-1",
              "display": "Symptom"
            }
          ]
        },
        "subject": {
          "reference": "Patient/FridolinMueller"
        },
        "encounter": {
          "reference": "Encounter/Encounter-181521210706"
        },
        "effectiveDateTime": "2021-07-06",
        "valueBoolean": true,
        "hasMember": [
          {
            "reference": "Observation/Fever-20210706-181521210706"
          },
          {
            "reference": "Observation/SuprapubicTenderness-20210706-181521210706"
          },
          {
            "reference": "Observation/NoAnglePainOrTenderness-20210706-181521210706"
          },
          {
            "reference": "Observation/NoUrinaryUrgency-20210706-181521210706"
          },
          {
            "reference": "Observation/NoUrinaryFrequency-20210706-181521210706"
          },
          {
            "reference": "Observation/NoDysuria-20210706-181521210706"
          }
        ]
      }
    },
    {
      "fullUrl": "http://example.ch/fhir/Observation/Fever-20210706-181521210706",
      "resource": {
        "resourceType": "Observation",
        "id": "Fever-20210706-181521210706",
        "meta": {
          "profile": [
            "http://fhir.ch/ig/swissnoso/StructureDefinition/swissnoso-observation-fever"
          ]
        },
        "text": {
          "status": "generated",
          "div": "<div xmlns=\"http://www.w3.org/1999/xhtml\"><p><b>Generated Narrative</b></p><div style=\"display: inline-block; background-color: #d9e0e7; padding: 6px; margin: 4px; border: 1px solid #8da1b4; border-radius: 5px; line-height: 60%\"><p style=\"margin-bottom: 0px\">Resource \"Fever-20210706-181521210706\" </p><p style=\"margin-bottom: 0px\">Profile: <a href=\"StructureDefinition-swissnoso-observation-fever.html\">Swissnoso Observation Fever</a></p></div><p><b>status</b>: final</p><p><b>code</b>: Fieber &gt;38.0°C (Ohr) <span style=\"background: LightGoldenRodYellow; margin: 4px; border: 1px solid khaki\"> (<a href=\"CodeSystem-swissnoso-clinical-symptom.html\">Swissnoso Clinical Symptom</a>#1)</span></p><p><b>subject</b>: <a href=\"#Patient_FridolinMueller\">See above (Patient/FridolinMueller)</a></p><p><b>encounter</b>: <a href=\"#Encounter_Encounter-181521210706\">See above (Encounter/Encounter-181521210706)</a></p><p><b>effective</b>: 2021-07-06</p><p><b>value</b>: true</p></div>"
        },
        "status": "final",
        "code": {
          "coding": [
            {
              "system": "http://fhir.ch/ig/swissnoso/CodeSystem/swissnoso-clinical-symptom",
              "code": "1",
              "display": "Fieber >38.0°C (Ohr)"
            }
          ]
        },
        "subject": {
          "reference": "Patient/FridolinMueller"
        },
        "encounter": {
          "reference": "Encounter/Encounter-181521210706"
        },
        "effectiveDateTime": "2021-07-06",
        "valueBoolean": true
      }
    },
    {
      "fullUrl": "http://example.ch/fhir/Observation/SuprapubicTenderness-20210706-181521210706",
      "resource": {
        "resourceType": "Observation",
        "id": "SuprapubicTenderness-20210706-181521210706",
        "meta": {
          "profile": [
            "http://fhir.ch/ig/swissnoso/StructureDefinition/swissnoso-observation-suprapubic-tenderness"
          ]
        },
        "text": {
          "status": "generated",
          "div": "<div xmlns=\"http://www.w3.org/1999/xhtml\"><p><b>Generated Narrative</b></p><div style=\"display: inline-block; background-color: #d9e0e7; padding: 6px; margin: 4px; border: 1px solid #8da1b4; border-radius: 5px; line-height: 60%\"><p style=\"margin-bottom: 0px\">Resource \"SuprapubicTenderness-20210706-181521210706\" </p><p style=\"margin-bottom: 0px\">Profile: <a href=\"StructureDefinition-swissnoso-observation-suprapubic-tenderness.html\">Swissnoso Observation Suprapubic Tenderness</a></p></div><p><b>status</b>: final</p><p><b>code</b>: Suprapubische Druckdolenz <span style=\"background: LightGoldenRodYellow; margin: 4px; border: 1px solid khaki\"> (<a href=\"CodeSystem-swissnoso-clinical-symptom.html\">Swissnoso Clinical Symptom</a>#2)</span></p><p><b>subject</b>: <a href=\"#Patient_FridolinMueller\">See above (Patient/FridolinMueller)</a></p><p><b>encounter</b>: <a href=\"#Encounter_Encounter-181521210706\">See above (Encounter/Encounter-181521210706)</a></p><p><b>effective</b>: 2021-07-06</p><p><b>value</b>: true</p></div>"
        },
        "status": "final",
        "code": {
          "coding": [
            {
              "system": "http://fhir.ch/ig/swissnoso/CodeSystem/swissnoso-clinical-symptom",
              "code": "2",
              "display": "Suprapubische Druckdolenz"
            }
          ]
        },
        "subject": {
          "reference": "Patient/FridolinMueller"
        },
        "encounter": {
          "reference": "Encounter/Encounter-181521210706"
        },
        "effectiveDateTime": "2021-07-06",
        "valueBoolean": true
      }
    },
    {
      "fullUrl": "http://example.ch/fhir/Observation/NoAnglePainOrTenderness-20210706-181521210706",
      "resource": {
        "resourceType": "Observation",
        "id": "NoAnglePainOrTenderness-20210706-181521210706",
        "meta": {
          "profile": [
            "http://fhir.ch/ig/swissnoso/StructureDefinition/swissnoso-observation-angle-pain-or-tenderness"
          ]
        },
        "text": {
          "status": "generated",
          "div": "<div xmlns=\"http://www.w3.org/1999/xhtml\"><p><b>Generated Narrative</b></p><div style=\"display: inline-block; background-color: #d9e0e7; padding: 6px; margin: 4px; border: 1px solid #8da1b4; border-radius: 5px; line-height: 60%\"><p style=\"margin-bottom: 0px\">Resource \"NoAnglePainOrTenderness-20210706-181521210706\" </p><p style=\"margin-bottom: 0px\">Profile: <a href=\"StructureDefinition-swissnoso-observation-angle-pain-or-tenderness.html\">Swissnoso Observation Angle Pain or Tenderness</a></p></div><p><b>status</b>: final</p><p><b>code</b>: Flankenschmerzen oder -klopfdolenz <span style=\"background: LightGoldenRodYellow; margin: 4px; border: 1px solid khaki\"> (<a href=\"CodeSystem-swissnoso-clinical-symptom.html\">Swissnoso Clinical Symptom</a>#3)</span></p><p><b>subject</b>: <a href=\"#Patient_FridolinMueller\">See above (Patient/FridolinMueller)</a></p><p><b>encounter</b>: <a href=\"#Encounter_Encounter-181521210706\">See above (Encounter/Encounter-181521210706)</a></p><p><b>value</b>: false</p></div>"
        },
        "status": "final",
        "code": {
          "coding": [
            {
              "system": "http://fhir.ch/ig/swissnoso/CodeSystem/swissnoso-clinical-symptom",
              "code": "3",
              "display": "Flankenschmerzen oder -klopfdolenz"
            }
          ]
        },
        "subject": {
          "reference": "Patient/FridolinMueller"
        },
        "encounter": {
          "reference": "Encounter/Encounter-181521210706"
        },
        "valueBoolean": false
      }
    },
    {
      "fullUrl": "http://example.ch/fhir/Observation/NoUrinaryUrgency-20210706-181521210706",
      "resource": {
        "resourceType": "Observation",
        "id": "NoUrinaryUrgency-20210706-181521210706",
        "meta": {
          "profile": [
            "http://fhir.ch/ig/swissnoso/StructureDefinition/swissnoso-observation-urinary-urgency"
          ]
        },
        "text": {
          "status": "generated",
          "div": "<div xmlns=\"http://www.w3.org/1999/xhtml\"><p><b>Generated Narrative</b></p><div style=\"display: inline-block; background-color: #d9e0e7; padding: 6px; margin: 4px; border: 1px solid #8da1b4; border-radius: 5px; line-height: 60%\"><p style=\"margin-bottom: 0px\">Resource \"NoUrinaryUrgency-20210706-181521210706\" </p><p style=\"margin-bottom: 0px\">Profile: <a href=\"StructureDefinition-swissnoso-observation-urinary-urgency.html\">Swissnoso Observation Urinary Urgency</a></p></div><p><b>status</b>: final</p><p><b>code</b>: Harndrang <span style=\"background: LightGoldenRodYellow; margin: 4px; border: 1px solid khaki\"> (<a href=\"CodeSystem-swissnoso-clinical-symptom.html\">Swissnoso Clinical Symptom</a>#4)</span></p><p><b>subject</b>: <a href=\"#Patient_FridolinMueller\">See above (Patient/FridolinMueller)</a></p><p><b>encounter</b>: <a href=\"#Encounter_Encounter-181521210706\">See above (Encounter/Encounter-181521210706)</a></p><p><b>value</b>: false</p></div>"
        },
        "status": "final",
        "code": {
          "coding": [
            {
              "system": "http://fhir.ch/ig/swissnoso/CodeSystem/swissnoso-clinical-symptom",
              "code": "4",
              "display": "Harndrang"
            }
          ]
        },
        "subject": {
          "reference": "Patient/FridolinMueller"
        },
        "encounter": {
          "reference": "Encounter/Encounter-181521210706"
        },
        "valueBoolean": false
      }
    },
    {
      "fullUrl": "http://example.ch/fhir/Observation/NoUrinaryFrequency-20210706-181521210706",
      "resource": {
        "resourceType": "Observation",
        "id": "NoUrinaryFrequency-20210706-181521210706",
        "meta": {
          "profile": [
            "http://fhir.ch/ig/swissnoso/StructureDefinition/swissnoso-observation-urinary-frequency"
          ]
        },
        "text": {
          "status": "generated",
          "div": "<div xmlns=\"http://www.w3.org/1999/xhtml\"><p><b>Generated Narrative</b></p><div style=\"display: inline-block; background-color: #d9e0e7; padding: 6px; margin: 4px; border: 1px solid #8da1b4; border-radius: 5px; line-height: 60%\"><p style=\"margin-bottom: 0px\">Resource \"NoUrinaryFrequency-20210706-181521210706\" </p><p style=\"margin-bottom: 0px\">Profile: <a href=\"StructureDefinition-swissnoso-observation-urinary-frequency.html\">Swissnoso Observation Urinary Frequency</a></p></div><p><b>status</b>: final</p><p><b>code</b>: Pollakisurie <span style=\"background: LightGoldenRodYellow; margin: 4px; border: 1px solid khaki\"> (<a href=\"CodeSystem-swissnoso-clinical-symptom.html\">Swissnoso Clinical Symptom</a>#5)</span></p><p><b>subject</b>: <a href=\"#Patient_FridolinMueller\">See above (Patient/FridolinMueller)</a></p><p><b>encounter</b>: <a href=\"#Encounter_Encounter-181521210706\">See above (Encounter/Encounter-181521210706)</a></p><p><b>value</b>: false</p></div>"
        },
        "status": "final",
        "code": {
          "coding": [
            {
              "system": "http://fhir.ch/ig/swissnoso/CodeSystem/swissnoso-clinical-symptom",
              "code": "5",
              "display": "Pollakisurie"
            }
          ]
        },
        "subject": {
          "reference": "Patient/FridolinMueller"
        },
        "encounter": {
          "reference": "Encounter/Encounter-181521210706"
        },
        "valueBoolean": false
      }
    },
    {
      "fullUrl": "http://example.ch/fhir/Observation/NoDysuria-20210706-181521210706",
      "resource": {
        "resourceType": "Observation",
        "id": "NoDysuria-20210706-181521210706",
        "meta": {
          "profile": [
            "http://fhir.ch/ig/swissnoso/StructureDefinition/swissnoso-observation-dysuria"
          ]
        },
        "text": {
          "status": "generated",
          "div": "<div xmlns=\"http://www.w3.org/1999/xhtml\"><p><b>Generated Narrative</b></p><div style=\"display: inline-block; background-color: #d9e0e7; padding: 6px; margin: 4px; border: 1px solid #8da1b4; border-radius: 5px; line-height: 60%\"><p style=\"margin-bottom: 0px\">Resource \"NoDysuria-20210706-181521210706\" </p><p style=\"margin-bottom: 0px\">Profile: <a href=\"StructureDefinition-swissnoso-observation-dysuria.html\">Swissnoso Observation Dysuria</a></p></div><p><b>status</b>: final</p><p><b>code</b>: Dysurie <span style=\"background: LightGoldenRodYellow; margin: 4px; border: 1px solid khaki\"> (<a href=\"CodeSystem-swissnoso-clinical-symptom.html\">Swissnoso Clinical Symptom</a>#6)</span></p><p><b>subject</b>: <a href=\"#Patient_FridolinMueller\">See above (Patient/FridolinMueller)</a></p><p><b>encounter</b>: <a href=\"#Encounter_Encounter-181521210706\">See above (Encounter/Encounter-181521210706)</a></p><p><b>value</b>: false</p></div>"
        },
        "status": "final",
        "code": {
          "coding": [
            {
              "system": "http://fhir.ch/ig/swissnoso/CodeSystem/swissnoso-clinical-symptom",
              "code": "6",
              "display": "Dysurie"
            }
          ]
        },
        "subject": {
          "reference": "Patient/FridolinMueller"
        },
        "encounter": {
          "reference": "Encounter/Encounter-181521210706"
        },
        "valueBoolean": false
      }
    },
    {
      "fullUrl": "http://example.ch/fhir/Procedure/Microbiology-20210706-181521210706",
      "resource": {
        "resourceType": "Procedure",
        "id": "Microbiology-20210706-181521210706",
        "meta": {
          "profile": [
            "http://fhir.ch/ig/swissnoso/StructureDefinition/swissnoso-procedure-microbiology"
          ]
        },
        "text": {
          "status": "extensions",
          "div": "<div xmlns=\"http://www.w3.org/1999/xhtml\"><p><b>Generated Narrative</b></p><div style=\"display: inline-block; background-color: #d9e0e7; padding: 6px; margin: 4px; border: 1px solid #8da1b4; border-radius: 5px; line-height: 60%\"><p style=\"margin-bottom: 0px\">Resource \"Microbiology-20210706-181521210706\" </p><p style=\"margin-bottom: 0px\">Profile: <a href=\"StructureDefinition-swissnoso-procedure-microbiology.html\">Swissnoso Procedure Microbiology</a></p></div><p><b>Swissnoso Sequence Number</b>: 1</p><p><b>status</b>: completed</p><p><b>code</b>: Microbiology (procedure) <span style=\"background: LightGoldenRodYellow; margin: 4px; border: 1px solid khaki\"> (<a href=\"https://browser.ihtsdotools.org/\">SNOMED CT</a>#269934003)</span></p><p><b>subject</b>: <a href=\"#Patient_FridolinMueller\">See above (Patient/FridolinMueller)</a></p><p><b>encounter</b>: <a href=\"#Encounter_Encounter-181521210706\">See above (Encounter/Encounter-181521210706)</a></p><p><b>performed</b>: 2021-07-06</p><p><b>reasonReference</b>: <a href=\"#Observation_Symptoms-20210706-181521210706\">See above (Observation/Symptoms-20210706-181521210706)</a></p></div>"
        },
        "extension": [
          {
            "url": "http://fhir.ch/ig/swissnoso/StructureDefinition/swissnoso-sequence-number",
            "valuePositiveInt": 1
          }
        ],
        "status": "completed",
        "code": {
          "coding": [
            {
              "system": "http://snomed.info/sct",
              "code": "269934003",
              "display": "Microbiology (procedure)"
            }
          ]
        },
        "subject": {
          "reference": "Patient/FridolinMueller"
        },
        "encounter": {
          "reference": "Encounter/Encounter-181521210706"
        },
        "performedDateTime": "2021-07-06",
        "reasonReference": [
          {
            "reference": "Observation/Symptoms-20210706-181521210706"
          }
        ]
      }
    },
    {
      "fullUrl": "http://example.ch/fhir/Observation/NumberOfDifferentGerms-20210706-181521210706",
      "resource": {
        "resourceType": "Observation",
        "id": "NumberOfDifferentGerms-20210706-181521210706",
        "meta": {
          "profile": [
            "http://fhir.ch/ig/swissnoso/StructureDefinition/swissnoso-observation-number-of-different-germs"
          ]
        },
        "text": {
          "status": "generated",
          "div": "<div xmlns=\"http://www.w3.org/1999/xhtml\"><p><b>Generated Narrative</b></p><div style=\"display: inline-block; background-color: #d9e0e7; padding: 6px; margin: 4px; border: 1px solid #8da1b4; border-radius: 5px; line-height: 60%\"><p style=\"margin-bottom: 0px\">Resource \"NumberOfDifferentGerms-20210706-181521210706\" </p><p style=\"margin-bottom: 0px\">Profile: <a href=\"StructureDefinition-swissnoso-observation-number-of-different-germs.html\">Swissnoso Observation Number of Different Germs</a></p></div><p><b>partOf</b>: <a href=\"#Procedure_Microbiology-20210706-181521210706\">See above (Procedure/Microbiology-20210706-181521210706)</a></p><p><b>status</b>: final</p><p><b>code</b>: Number of different germs <span style=\"background: LightGoldenRodYellow; margin: 4px; border: 1px solid khaki\"> (<a href=\"CodeSystem-swissnoso.html\">Swissnoso</a>#number-germs)</span></p><p><b>subject</b>: <a href=\"#Patient_FridolinMueller\">See above (Patient/FridolinMueller)</a></p><p><b>encounter</b>: <a href=\"#Encounter_Encounter-181521210706\">See above (Encounter/Encounter-181521210706)</a></p><p><b>effective</b>: 2021-07-06</p><p><b>value</b>: 2 <span style=\"background: LightGoldenRodYellow; margin: 4px; border: 1px solid khaki\"> (<a href=\"CodeSystem-swissnoso-number-of-different-germs.html\">Swissnoso Number of Different Germs</a>#2)</span></p><p><b>hasMember</b>: </p><ul><li><a href=\"#Observation_Germ1-20210706-181521210706\">See above (Observation/Germ1-20210706-181521210706)</a></li><li><a href=\"#Observation_Germ2-20210706-181521210706\">See above (Observation/Germ2-20210706-181521210706)</a></li></ul></div>"
        },
        "partOf": [
          {
            "reference": "Procedure/Microbiology-20210706-181521210706"
          }
        ],
        "status": "final",
        "code": {
          "coding": [
            {
              "system": "http://fhir.ch/ig/swissnoso/CodeSystem/swissnoso",
              "code": "number-germs",
              "display": "Number of different germs"
            }
          ]
        },
        "subject": {
          "reference": "Patient/FridolinMueller"
        },
        "encounter": {
          "reference": "Encounter/Encounter-181521210706"
        },
        "effectiveDateTime": "2021-07-06",
        "valueCodeableConcept": {
          "coding": [
            {
              "system": "http://fhir.ch/ig/swissnoso/CodeSystem/swissnoso-number-of-different-germs",
              "code": "2",
              "display": "2"
            }
          ]
        },
        "hasMember": [
          {
            "reference": "Observation/Germ1-20210706-181521210706"
          },
          {
            "reference": "Observation/Germ2-20210706-181521210706"
          }
        ]
      }
    },
    {
      "fullUrl": "http://example.ch/fhir/Observation/Germ1-20210706-181521210706",
      "resource": {
        "resourceType": "Observation",
        "id": "Germ1-20210706-181521210706",
        "meta": {
          "profile": [
            "http://fhir.ch/ig/swissnoso/StructureDefinition/swissnoso-observation-germ"
          ]
        },
        "text": {
          "status": "generated",
          "div": "<div xmlns=\"http://www.w3.org/1999/xhtml\"><p><b>Generated Narrative</b></p><div style=\"display: inline-block; background-color: #d9e0e7; padding: 6px; margin: 4px; border: 1px solid #8da1b4; border-radius: 5px; line-height: 60%\"><p style=\"margin-bottom: 0px\">Resource \"Germ1-20210706-181521210706\" </p><p style=\"margin-bottom: 0px\">Profile: <a href=\"StructureDefinition-swissnoso-observation-germ.html\">Swissnoso Observation Germ</a></p></div><p><b>partOf</b>: <a href=\"#Procedure_Microbiology-20210706-181521210706\">See above (Procedure/Microbiology-20210706-181521210706)</a></p><p><b>status</b>: final</p><p><b>code</b>: Bacteria [Presence] in Urine <span style=\"background: LightGoldenRodYellow; margin: 4px; border: 1px solid khaki\"> (<a href=\"https://loinc.org/\">LOINC</a>#87829-8)</span></p><p><b>subject</b>: <a href=\"#Patient_FridolinMueller\">See above (Patient/FridolinMueller)</a></p><p><b>encounter</b>: <a href=\"#Encounter_Encounter-181521210706\">See above (Encounter/Encounter-181521210706)</a></p><p><b>effective</b>: 2021-07-06</p><blockquote><p><b>component</b></p><p><b>code</b>: Bacteria identified in Urine by Culture <span style=\"background: LightGoldenRodYellow; margin: 4px; border: 1px solid khaki\"> (<a href=\"https://loinc.org/\">LOINC</a>#630-4)</span></p><p><b>value</b>: Escherichia coli (organism) <span style=\"background: LightGoldenRodYellow; margin: 4px; border: 1px solid khaki\"> (<a href=\"https://browser.ihtsdotools.org/\">SNOMED CT</a>#112283007)</span></p></blockquote><blockquote><p><b>component</b></p><p><b>code</b>: Bacteria [#/volume] in Urine by Automated count <span style=\"background: LightGoldenRodYellow; margin: 4px; border: 1px solid khaki\"> (<a href=\"https://loinc.org/\">LOINC</a>#51480-2)</span></p><p><b>value</b>: &gt;=10E5 CFU/ml <span style=\"background: LightGoldenRodYellow; margin: 4px; border: 1px solid khaki\"> (<a href=\"CodeSystem-swissnoso-bacterial-count-in-urine.html\">Swissnoso Bacterial Count in Urine</a>#2)</span></p></blockquote></div>"
        },
        "partOf": [
          {
            "reference": "Procedure/Microbiology-20210706-181521210706"
          }
        ],
        "status": "final",
        "code": {
          "coding": [
            {
              "system": "http://loinc.org",
              "code": "87829-8",
              "display": "Bacteria [Presence] in Urine"
            }
          ]
        },
        "subject": {
          "reference": "Patient/FridolinMueller"
        },
        "encounter": {
          "reference": "Encounter/Encounter-181521210706"
        },
        "effectiveDateTime": "2021-07-06",
        "component": [
          {
            "code": {
              "coding": [
                {
                  "system": "http://loinc.org",
                  "code": "630-4",
                  "display": "Bacteria identified in Urine by Culture"
                }
              ]
            },
            "valueCodeableConcept": {
              "coding": [
                {
                  "system": "http://snomed.info/sct",
                  "code": "112283007",
                  "display": "Escherichia coli (organism)"
                }
              ]
            }
          },
          {
            "code": {
              "coding": [
                {
                  "system": "http://loinc.org",
                  "code": "51480-2",
                  "display": "Bacteria [#/volume] in Urine by Automated count"
                }
              ]
            },
            "valueCodeableConcept": {
              "coding": [
                {
                  "system": "http://fhir.ch/ig/swissnoso/CodeSystem/swissnoso-bacterial-count-in-urine",
                  "code": "2",
                  "display": ">=10E5 CFU/ml"
                }
              ]
            }
          }
        ]
      }
    },
    {
      "fullUrl": "http://example.ch/fhir/Observation/Germ2-20210706-181521210706",
      "resource": {
        "resourceType": "Observation",
        "id": "Germ2-20210706-181521210706",
        "meta": {
          "profile": [
            "http://fhir.ch/ig/swissnoso/StructureDefinition/swissnoso-observation-germ"
          ]
        },
        "text": {
          "status": "generated",
          "div": "<div xmlns=\"http://www.w3.org/1999/xhtml\"><p><b>Generated Narrative</b></p><div style=\"display: inline-block; background-color: #d9e0e7; padding: 6px; margin: 4px; border: 1px solid #8da1b4; border-radius: 5px; line-height: 60%\"><p style=\"margin-bottom: 0px\">Resource \"Germ2-20210706-181521210706\" </p><p style=\"margin-bottom: 0px\">Profile: <a href=\"StructureDefinition-swissnoso-observation-germ.html\">Swissnoso Observation Germ</a></p></div><p><b>partOf</b>: <a href=\"#Procedure_Microbiology-20210706-181521210706\">See above (Procedure/Microbiology-20210706-181521210706)</a></p><p><b>status</b>: final</p><p><b>code</b>: Bacteria [Presence] in Urine <span style=\"background: LightGoldenRodYellow; margin: 4px; border: 1px solid khaki\"> (<a href=\"https://loinc.org/\">LOINC</a>#87829-8)</span></p><p><b>subject</b>: <a href=\"#Patient_FridolinMueller\">See above (Patient/FridolinMueller)</a></p><p><b>encounter</b>: <a href=\"#Encounter_Encounter-181521210706\">See above (Encounter/Encounter-181521210706)</a></p><p><b>effective</b>: 2021-07-06</p><blockquote><p><b>component</b></p><p><b>code</b>: Bacteria identified in Urine by Culture <span style=\"background: LightGoldenRodYellow; margin: 4px; border: 1px solid khaki\"> (<a href=\"https://loinc.org/\">LOINC</a>#630-4)</span></p><p><b>value</b>: Genus Enterococcus (organism) <span style=\"background: LightGoldenRodYellow; margin: 4px; border: 1px solid khaki\"> (<a href=\"https://browser.ihtsdotools.org/\">SNOMED CT</a>#2785000)</span></p></blockquote><blockquote><p><b>component</b></p><p><b>code</b>: Bacteria [#/volume] in Urine by Automated count <span style=\"background: LightGoldenRodYellow; margin: 4px; border: 1px solid khaki\"> (<a href=\"https://loinc.org/\">LOINC</a>#51480-2)</span></p><p><b>value</b>: &gt;=10E5 CFU/ml <span style=\"background: LightGoldenRodYellow; margin: 4px; border: 1px solid khaki\"> (<a href=\"CodeSystem-swissnoso-bacterial-count-in-urine.html\">Swissnoso Bacterial Count in Urine</a>#2)</span></p></blockquote></div>"
        },
        "partOf": [
          {
            "reference": "Procedure/Microbiology-20210706-181521210706"
          }
        ],
        "status": "final",
        "code": {
          "coding": [
            {
              "system": "http://loinc.org",
              "code": "87829-8",
              "display": "Bacteria [Presence] in Urine"
            }
          ]
        },
        "subject": {
          "reference": "Patient/FridolinMueller"
        },
        "encounter": {
          "reference": "Encounter/Encounter-181521210706"
        },
        "effectiveDateTime": "2021-07-06",
        "component": [
          {
            "code": {
              "coding": [
                {
                  "system": "http://loinc.org",
                  "code": "630-4",
                  "display": "Bacteria identified in Urine by Culture"
                }
              ]
            },
            "valueCodeableConcept": {
              "coding": [
                {
                  "system": "http://snomed.info/sct",
                  "code": "2785000",
                  "display": "Genus Enterococcus (organism)"
                }
              ]
            }
          },
          {
            "code": {
              "coding": [
                {
                  "system": "http://loinc.org",
                  "code": "51480-2",
                  "display": "Bacteria [#/volume] in Urine by Automated count"
                }
              ]
            },
            "valueCodeableConcept": {
              "coding": [
                {
                  "system": "http://fhir.ch/ig/swissnoso/CodeSystem/swissnoso-bacterial-count-in-urine",
                  "code": "2",
                  "display": ">=10E5 CFU/ml"
                }
              ]
            }
          }
        ]
      }
    }
  ]
}