<?xml version="1.0" encoding="UTF-8"?>

<Bundle xmlns="http://hl7.org/fhir">
  <id value="8Doc-HepatiteB"/>
  <identifier>
    <system value="urn:ietf:rfc:3986"/>
    <value value="urn:uuid:2101332d-6012-443f-9690-9291adb23a5c"/>
  </identifier>
  <type value="document"/>
  <timestamp value="2024-04-10T12:00:00+02:00"/>
  <entry>
    <fullUrl value="urn:uuid:91415845-943e-46b6-97f1-760fc6d65c77"/>
    <resource>
      <Composition>
        <id value="91415845-943e-46b6-97f1-760fc6d65c77"/>
        <language value="de-CH"/>
        <identifier>
          <system value="urn:ietf:rfc:3986"/>
          <value value="urn:uuid:2101332d-6012-443f-9690-9291adb23a5c"/>
        </identifier>
        <status value="final"/>
        <type>
          <coding>
            <system value="http://snomed.info/sct"/>
            <version value="http://snomed.info/sct/2011000195101"/>
            <code value="4241000179101"/>
            <display value="Laborbericht"/>
          </coding>
          <coding>
            <system value="http://loinc.org"/>
            <code value="11502-2"/>
            <display value="Laboratory report"/>
          </coding>
        </type>
        <subject>
          <reference value="urn:uuid:2c3e0c85-3374-4569-9d6b-6e389049e486"/>
        </subject>
        <date value="2024-04-10T12:00:00+02:00"/>
        <author>
          <reference value="urn:uuid:e0faca55-c450-4575-83a1-446be9bef17d"/>
        </author>
        <title value="Laborbericht vom 10.04.2024"/>
        <section>
          <title value="Analyseergebnisse der mikrobiologischen Untersuchung"/>
          <code>
            <coding>
              <system value="http://loinc.org"/>
              <code value="18725-2"/>
              <display value="Microbiology studies (set)"/>
            </coding>
          </code>
          <entry>
            <reference value="urn:uuid:741430d1-e83a-4439-97fc-ef8b6694b228"/>
          </entry>
        </section>
      </Composition>
    </resource>
  </entry>
  <entry>
    <fullUrl value="urn:uuid:2c3e0c85-3374-4569-9d6b-6e389049e486"/>
    <resource>
      <Patient>
        <id value="2c3e0c85-3374-4569-9d6b-6e389049e486"/>
        <identifier>
          <system value="urn:oid:2.16.756.5.32"/>
          <value value="7562295883070"/>
        </identifier>
        <name>
          <family value="Monika"/>
          <given value="Delemat"/>
        </name>
        <gender value="male"/>
        <birthDate value="1960-08-22"/>
        <address>
          <use value="home"/>
          <line value="Bahnhofstrasse 27"/>
          <city value="Bern"/>
          <state value="BE"/>
          <postalCode value="3000"/>
          <country value="CH">
            <extension url="http://hl7.org/fhir/StructureDefinition/iso21090-SC-coding">
              <valueCoding>
                <system value="urn:iso:std:iso:3166"/>
                <code value="CH"/>
              </valueCoding>
            </extension>
          </country>
        </address>
      </Patient>
    </resource>
  </entry>
  <entry>
    <fullUrl value="urn:uuid:e0faca55-c450-4575-83a1-446be9bef17d"/>
    <resource>
      <Organization>
        <id value="e0faca55-c450-4575-83a1-446be9bef17d"/>
        <identifier>
          <system value="urn:oid:2.51.1.3"/>
          <value value="7601002331470"/>
        </identifier>
        <name value="SanLab"/>
      </Organization>
    </resource>
  </entry>
  <entry>
    <fullUrl value="urn:uuid:741430d1-e83a-4439-97fc-ef8b6694b228"/>
    <resource>
      <Observation>
        <id value="741430d1-e83a-4439-97fc-ef8b6694b228"/>
        <status value="final"/>
        <category>
          <coding>
            <system value="http://terminology.hl7.org/CodeSystem/observation-category"/>
            <code value="laboratory"/>
            <display value="Laboratory"/>
          </coding>
        </category>
        <code>
          <coding>
            <system value="http://loinc.org"/>
            <code value="31204-1"/>
          </coding>
        </code>
        <subject>
          <reference value="urn:uuid:2c3e0c85-3374-4569-9d6b-6e389049e486"/>
        </subject>
        <effectiveDateTime value="2024-04-10T12:00:00+02:00"/>
        <performer>
          <reference value="urn:uuid:e0faca55-c450-4575-83a1-446be9bef17d"/>
        </performer>
        <valueCodeableConcept>
          <coding>
            <system value="http://snomed.info/sct"/>
            <code value="10828004"/>
            <display value="Positive (qualifier value)"/>
          </coding>
        </valueCodeableConcept>
        <interpretation>
          <coding>
            <system value="http://terminology.hl7.org/CodeSystem/v3-ObservationInterpretation"/>
            <code value="POS"/>
            <display value="Positive"/>
          </coding>
        </interpretation>
        <specimen>
          <reference value="urn:uuid:b094867b-300c-4317-b909-1e77b4a2017c"/>
        </specimen>
      </Observation>
    </resource>
  </entry>
  <entry>
    <fullUrl value="urn:uuid:4f84eb40-a17e-435f-b0c4-bfc735c465a6"/>
    <resource>
      <Practitioner>
        <id value="4f84eb40-a17e-435f-b0c4-bfc735c465a6"/>
        <identifier>
          <system value="urn:oid:2.51.1.3"/>
          <value value="7601000000514"/>
        </identifier>
        <name>
          <family value="Hauser"/>
          <given value="Peter"/>
        </name>
        <telecom>
          <system value="phone"/>
          <value value="+41 79 222 33 44"/>
        </telecom>
        <telecom>
          <system value="email"/>
          <value value="peter.hauser@hauserpraxis.ch"/>
        </telecom>
      </Practitioner>
    </resource>
  </entry>
  <entry>
    <fullUrl value="urn:uuid:78060f37-44c5-4274-a8ad-de4b3e588d3f"/>
    <resource>
      <Organization>
        <id value="78060f37-44c5-4274-a8ad-de4b3e588d3f"/>
        <identifier>
          <system value="urn:oid:2.16.756.5.45"/>
          <value value="A74966168"/>
        </identifier>
        <name value="Praxis Dr. Hauser"/>
        <address>
          <line value="Hauptstrasse 10">
            <extension url="http://hl7.org/fhir/StructureDefinition/iso21090-ADXP-streetName">
              <valueString value="Hauptstrasse"/>
            </extension>
            <extension url="http://hl7.org/fhir/StructureDefinition/iso21090-ADXP-houseNumber">
              <valueString value="10"/>
            </extension>
          </line>
          <city value="Solothurn"/>
          <postalCode value="4500"/>
        </address>
      </Organization>
    </resource>
  </entry>
  <entry>
    <fullUrl value="urn:uuid:c15fda64-0d0a-44de-b343-bef7f02d94a0"/>
    <resource>
      <PractitionerRole>
        <id value="c15fda64-0d0a-44de-b343-bef7f02d94a0"/>
        <practitioner>
          <reference value="urn:uuid:4f84eb40-a17e-435f-b0c4-bfc735c465a6"/>
        </practitioner>
        <organization>
          <reference value="urn:uuid:78060f37-44c5-4274-a8ad-de4b3e588d3f"/>
        </organization>
      </PractitionerRole>
    </resource>
  </entry>
  <entry>
    <fullUrl value="urn:uuid:b094867b-300c-4317-b909-1e77b4a2017c"/>
    <resource>
      <Specimen>
        <id value="b094867b-300c-4317-b909-1e77b4a2017c"/>
        <type>
          <text value="Material declared by Observation.code or non-mandatory"/>
        </type>
        <subject>
          <reference value="urn:uuid:2c3e0c85-3374-4569-9d6b-6e389049e486"/>
        </subject>
        <collection>
          <collectedDateTime value="2024-04-09"/>
        </collection>
      </Specimen>
    </resource>
  </entry>
  <entry>
    <fullUrl value="urn:uuid:ef543f73-c886-4a7f-81ce-12e2978b11c5"/>
    <resource>
      <ServiceRequest>
        <id value="ef543f73-c886-4a7f-81ce-12e2978b11c5"/>
        <identifier>
          <value value="26500923622"/>
        </identifier>
        <status value="completed"/>
        <intent value="order"/>
        <code>
          <coding>
            <system value="http://loinc.org"/>
            <code value="31204-1"/>
          </coding>
        </code>
        <subject>
          <reference value="urn:uuid:2c3e0c85-3374-4569-9d6b-6e389049e486"/>
        </subject>
        <requester>
          <reference value="urn:uuid:c15fda64-0d0a-44de-b343-bef7f02d94a0"/>
        </requester>
        <specimen>
          <reference value="urn:uuid:b094867b-300c-4317-b909-1e77b4a2017c"/>
        </specimen>
      </ServiceRequest>
    </resource>
  </entry>
  <entry>
    <fullUrl value="urn:uuid:ae99fade-feb6-451b-a20b-bd8a04be8531"/>
    <resource>
      <DiagnosticReport>
        <id value="ae99fade-feb6-451b-a20b-bd8a04be8531"/>
        <extension url="http://hl7.org/fhir/5.0/StructureDefinition/extension-DiagnosticReport.composition">
          <valueReference>
            <reference value="urn:uuid:91415845-943e-46b6-97f1-760fc6d65c77"/>
          </valueReference>
        </extension>
        <identifier>
          <system value="urn:ietf:rfc:3986"/>
          <value value="urn:uuid:2101332d-6012-443f-9690-9291adb23a5c"/>
        </identifier>
        <basedOn>
          <reference value="urn:uuid:ef543f73-c886-4a7f-81ce-12e2978b11c5"/>
        </basedOn>
        <status value="final"/>
        <code>
          <coding>
            <system value="http://loinc.org"/>
            <code value="11502-2"/>
            <display value="Laboratory report"/>
          </coding>
        </code>
        <subject>
          <reference value="urn:uuid:2c3e0c85-3374-4569-9d6b-6e389049e486"/>
        </subject>
        <performer>
          <reference value="urn:uuid:e0faca55-c450-4575-83a1-446be9bef17d"/>
        </performer>
        <specimen>
          <reference value="urn:uuid:b094867b-300c-4317-b909-1e77b4a2017c"/>
        </specimen>
        <result>
          <reference value="urn:uuid:741430d1-e83a-4439-97fc-ef8b6694b228"/>
        </result>
      </DiagnosticReport>
    </resource>
  </entry>
</Bundle>