{
  "resourceType" : "Bundle",
  "id" : "15Doc-Measles-Seroconversion",
  "identifier" : {
    "system" : "urn:ietf:rfc:3986",
    "value" : "urn:uuid:3401332d-6012-443f-9690-9291adb23aa3"
  },
  "type" : "document",
  "timestamp" : "2024-08-05T12:00:00+02:00",
  "entry" : [{
    "fullUrl" : "urn:uuid:c3331b57-6983-4f99-9a2b-cdf61ed2da49",
    "resource" : {
      "resourceType" : "Composition",
      "id" : "c3331b57-6983-4f99-9a2b-cdf61ed2da49",
      "language" : "de-CH",
      "identifier" : {
        "system" : "urn:ietf:rfc:3986",
        "value" : "urn:uuid:3401332d-6012-443f-9690-9291adb23aa3"
      },
      "status" : "final",
      "type" : {
        "coding" : [{
          "system" : "http://snomed.info/sct",
          "version" : "http://snomed.info/sct/2011000195101",
          "code" : "4241000179101",
          "display" : "Laborbericht"
        },
        {
          "system" : "http://loinc.org",
          "code" : "11502-2",
          "display" : "Laboratory report"
        }]
      },
      "subject" : {
        "reference" : "urn:uuid:b5f99b84-01ac-418a-bfb5-1f3e88b1bbd7"
      },
      "date" : "2024-08-05T12:00:00+02:00",
      "author" : [{
        "reference" : "urn:uuid:9c334f06-5493-422e-a9e3-b3868337527b"
      }],
      "title" : "Laborbericht vom 2.8.2024",
      "section" : [{
        "title" : "Analyseergebnisse der mikrobiologischen Untersuchung",
        "code" : {
          "coding" : [{
            "system" : "http://loinc.org",
            "code" : "18725-2",
            "display" : "Microbiology studies (set)"
          }]
        },
        "entry" : [{
          "reference" : "urn:uuid:cabba06d-26bc-47a5-a971-7b83bc356796"
        }]
      }]
    }
  },
  {
    "fullUrl" : "urn:uuid:b5f99b84-01ac-418a-bfb5-1f3e88b1bbd7",
    "resource" : {
      "resourceType" : "Patient",
      "id" : "b5f99b84-01ac-418a-bfb5-1f3e88b1bbd7",
      "identifier" : [{
        "system" : "urn:oid:2.16.756.5.32",
        "value" : "7561234567897"
      }],
      "name" : [{
        "family" : "Dupont",
        "given" : ["Antoine"]
      }],
      "gender" : "female",
      "birthDate" : "1981-02-07",
      "address" : [{
        "use" : "home",
        "line" : ["rue de la république 10"],
        "_line" : [{
          "extension" : [{
            "url" : "http://hl7.org/fhir/StructureDefinition/iso21090-ADXP-streetName",
            "valueString" : "rue de la république"
          },
          {
            "url" : "http://hl7.org/fhir/StructureDefinition/iso21090-ADXP-houseNumber",
            "valueString" : "10"
          }]
        }],
        "city" : "Carouge",
        "state" : "GE",
        "postalCode" : "1227",
        "country" : "CH",
        "_country" : {
          "extension" : [{
            "url" : "http://hl7.org/fhir/StructureDefinition/iso21090-SC-coding",
            "valueCoding" : {
              "system" : "urn:iso:std:iso:3166",
              "code" : "CH"
            }
          }]
        }
      }]
    }
  },
  {
    "fullUrl" : "urn:uuid:9c334f06-5493-422e-a9e3-b3868337527b",
    "resource" : {
      "resourceType" : "Organization",
      "id" : "9c334f06-5493-422e-a9e3-b3868337527b",
      "identifier" : [{
        "system" : "urn:oid:2.51.1.3",
        "value" : "7601002331470"
      }],
      "name" : "SanLab"
    }
  },
  {
    "fullUrl" : "urn:uuid:cabba06d-26bc-47a5-a971-7b83bc356796",
    "resource" : {
      "resourceType" : "Observation",
      "id" : "cabba06d-26bc-47a5-a971-7b83bc356796",
      "status" : "final",
      "category" : [{
        "coding" : [{
          "system" : "http://terminology.hl7.org/CodeSystem/observation-category",
          "code" : "laboratory",
          "display" : "Laboratory"
        }]
      }],
      "code" : {
        "coding" : [{
          "system" : "http://loinc.org",
          "code" : "44012-3"
        }]
      },
      "subject" : {
        "reference" : "urn:uuid:b5f99b84-01ac-418a-bfb5-1f3e88b1bbd7"
      },
      "effectiveDateTime" : "2024-07-25T14:20:00+02:00",
      "performer" : [{
        "reference" : "urn:uuid:9c334f06-5493-422e-a9e3-b3868337527b"
      }],
      "dataAbsentReason" : {
        "coding" : [{
          "system" : "http://terminology.hl7.org/CodeSystem/data-absent-reason",
          "code" : "not-applicable"
        }]
      },
      "interpretation" : [{
        "coding" : [{
          "system" : "http://snomed.info/sct",
          "code" : "1290194006"
        }]
      }],
      "specimen" : {
        "reference" : "urn:uuid:6a76b6af-3d16-4363-b5fc-eeb1e030d1d8"
      }
    }
  },
  {
    "fullUrl" : "urn:uuid:ebece141-638a-441c-a9b5-d19f319116ac",
    "resource" : {
      "resourceType" : "Practitioner",
      "id" : "ebece141-638a-441c-a9b5-d19f319116ac",
      "identifier" : [{
        "system" : "urn:oid:2.51.1.3",
        "value" : "7601000000514"
      }],
      "name" : [{
        "family" : "Hauser",
        "given" : ["Peter"]
      }],
      "telecom" : [{
        "system" : "phone",
        "value" : "+41 79 222 33 44"
      },
      {
        "system" : "email",
        "value" : "peter.hauser@hauserpraxis.ch"
      }]
    }
  },
  {
    "fullUrl" : "urn:uuid:3eccd1d7-dfb0-4f51-8242-6e4e2924737a",
    "resource" : {
      "resourceType" : "Organization",
      "id" : "3eccd1d7-dfb0-4f51-8242-6e4e2924737a",
      "identifier" : [{
        "system" : "urn:oid:2.16.756.5.45",
        "value" : "A74966168"
      }],
      "name" : "Praxis Dr. Hauser",
      "address" : [{
        "line" : ["Hauptstrasse 10"],
        "_line" : [{
          "extension" : [{
            "url" : "http://hl7.org/fhir/StructureDefinition/iso21090-ADXP-streetName",
            "valueString" : "Hauptstrasse"
          },
          {
            "url" : "http://hl7.org/fhir/StructureDefinition/iso21090-ADXP-houseNumber",
            "valueString" : "10"
          }]
        }],
        "city" : "Solothurn",
        "postalCode" : "4500"
      }]
    }
  },
  {
    "fullUrl" : "urn:uuid:c88f8986-619a-493b-96fd-b54cac82e4b4",
    "resource" : {
      "resourceType" : "PractitionerRole",
      "id" : "c88f8986-619a-493b-96fd-b54cac82e4b4",
      "practitioner" : {
        "reference" : "urn:uuid:ebece141-638a-441c-a9b5-d19f319116ac"
      },
      "organization" : {
        "reference" : "urn:uuid:3eccd1d7-dfb0-4f51-8242-6e4e2924737a"
      }
    }
  },
  {
    "fullUrl" : "urn:uuid:6a76b6af-3d16-4363-b5fc-eeb1e030d1d8",
    "resource" : {
      "resourceType" : "Specimen",
      "id" : "6a76b6af-3d16-4363-b5fc-eeb1e030d1d8",
      "type" : {
        "text" : "Material declared by Observation.code or non-mandatory"
      },
      "subject" : {
        "reference" : "urn:uuid:b5f99b84-01ac-418a-bfb5-1f3e88b1bbd7"
      },
      "collection" : {
        "collectedDateTime" : "2024-07-22T14:20:00+02:00"
      }
    }
  },
  {
    "fullUrl" : "urn:uuid:46f41f51-6164-4cce-a229-93c4048a8278",
    "resource" : {
      "resourceType" : "ServiceRequest",
      "id" : "46f41f51-6164-4cce-a229-93c4048a8278",
      "identifier" : [{
        "value" : "26500923622"
      }],
      "status" : "completed",
      "intent" : "order",
      "code" : {
        "coding" : [{
          "system" : "http://loinc.org",
          "code" : "44012-3"
        }]
      },
      "subject" : {
        "reference" : "urn:uuid:b5f99b84-01ac-418a-bfb5-1f3e88b1bbd7"
      },
      "requester" : {
        "reference" : "urn:uuid:c88f8986-619a-493b-96fd-b54cac82e4b4"
      },
      "specimen" : [{
        "reference" : "urn:uuid:6a76b6af-3d16-4363-b5fc-eeb1e030d1d8"
      }]
    }
  },
  {
    "fullUrl" : "urn:uuid:0f987ac6-72f0-4c69-bc3e-39c805d3de1c",
    "resource" : {
      "resourceType" : "DiagnosticReport",
      "id" : "0f987ac6-72f0-4c69-bc3e-39c805d3de1c",
      "extension" : [{
        "url" : "http://hl7.org/fhir/5.0/StructureDefinition/extension-DiagnosticReport.composition",
        "valueReference" : {
          "reference" : "urn:uuid:c3331b57-6983-4f99-9a2b-cdf61ed2da49"
        }
      }],
      "identifier" : [{
        "system" : "urn:ietf:rfc:3986",
        "value" : "urn:uuid:3401332d-6012-443f-9690-9291adb23aa3"
      }],
      "basedOn" : [{
        "reference" : "urn:uuid:46f41f51-6164-4cce-a229-93c4048a8278"
      }],
      "status" : "final",
      "code" : {
        "coding" : [{
          "system" : "http://loinc.org",
          "code" : "11502-2",
          "display" : "Laboratory report"
        }]
      },
      "subject" : {
        "reference" : "urn:uuid:b5f99b84-01ac-418a-bfb5-1f3e88b1bbd7"
      },
      "performer" : [{
        "reference" : "urn:uuid:9c334f06-5493-422e-a9e3-b3868337527b"
      }],
      "specimen" : [{
        "reference" : "urn:uuid:6a76b6af-3d16-4363-b5fc-eeb1e030d1d8"
      }],
      "result" : [{
        "reference" : "urn:uuid:cabba06d-26bc-47a5-a971-7b83bc356796"
      }]
    }
  }]
}