<?xml version="1.0" encoding="UTF-8"?>

<Bundle xmlns="http://hl7.org/fhir">
  <id value="A7-ConsolidatedMedicationCard"/>
  <meta>
    <profile value="http://chmed20af.emediplan.ch/fhir/StructureDefinition/chmed20af-analyzer-bundle"/>
  </meta>
  <identifier>
    <system value="http://emediplan.ch/chmed20af/id"/>
    <value value="26d3dff7-ab05-4737-a49c-5eccd33511a7"/>
  </identifier>
  <type value="document"/>
  <timestamp value="2020-02-01T09:30:00+01:00"/>
  <entry>
    <fullUrl value="http://test.fhir.ch/r4/Composition/A7-Analyzer"/>
    <resource>
      <Composition>
        <id value="A7-Analyzer"/>
        <meta>
          <profile value="http://chmed20af.emediplan.ch/fhir/StructureDefinition/chmed20af-analyzer-composition"/>
        </meta>
        <text>
          <status value="generated"/><div xmlns="http://www.w3.org/1999/xhtml"><p><b>Generated Narrative with Details</b></p><p><b>id</b>: A7-Analyzer</p><p><b>meta</b>: </p><p><b>status</b>: final</p><p><b>type</b>: Medication summary document (record artifact) <span style="background: LightGoldenRodYellow">(Details : {SNOMED CT code '721912009' = 'Medication summary document (record artifact)', given as 'Medication summary document (record artifact)'})</span></p><p><b>date</b>: Feb 1, 2020, 9:30:00 AM</p><p><b>author</b>: <a href="#backboneelement_Analyzer">Generated Summary: unknown resource entry</a></p><p><b>title</b>: Medikationsplan</p></div>
        </text>
        <status value="final"/>
        <type>
          <coding>
            <system value="http://snomed.info/sct"/>
            <code value="721912009"/>
            <display value="Medication summary document (record artifact)"/>
          </coding>
        </type>
        <subject>
          <reference value="Patient/MonikaWegmueller"/>
        </subject>
        <date value="2020-02-01T09:30:00+01:00"/>
        <author>
          <reference value="Device/Analyzer"/>
        </author>
        <title value="Medikationsplan"/>
        <section>
          <entry>
            <reference value="MedicationStatement/A7-MedStatBrufen-600-Analyzer"/>
          </entry>
          <entry>
            <reference value="MedicationStatement/A7-MedStatBrufenRetard-800-Analyzer"/>
          </entry>
        </section>
      </Composition>
    </resource>
  </entry>
  <entry>
    <fullUrl value="http://test.fhir.ch/r4/Patient/MonikaWegmueller"/>
    <resource>
      <Patient>
        <id value="MonikaWegmueller"/>
        <meta>
          <profile value="http://chmed20af.emediplan.ch/fhir/StructureDefinition/chmed20af-analyzer-patient"/>
        </meta>
        <text>
          <status value="generated"/><div xmlns="http://www.w3.org/1999/xhtml"><p><b>Generated Narrative with Details</b></p><p><b>id</b>: MonikaWegmueller</p><p><b>meta</b>: </p><p><b>identifier</b>: Medical record number = 11111111</p><p><b>name</b>: Monika Wegmüller </p><p><b>gender</b>: female</p><p><b>birthDate</b>: 1943-05-15</p><p><b>address</b>: Wiesenstr. 12 Zürich 8003 CH </p></div>
        </text>
        <identifier>
          <type>
            <coding>
              <system value="http://terminology.hl7.org/CodeSystem/v2-0203"/>
              <code value="MR"/>
            </coding>
          </type>
          <system value="urn:oid:2.999"/>
          <value value="11111111"/>
        </identifier>
        <name>
          <family value="Wegm&#xFC;ller"/>
          <given value="Monika"/>
        </name>
        <gender value="female"/>
        <birthDate value="1943-05-15"/>
        <address>
          <line value="Wiesenstr. 12"/>
          <city value="Z&#xFC;rich"/>
          <postalCode value="8003"/>
          <country value="CH"/>
        </address>
      </Patient>
    </resource>
  </entry>
  <entry>
    <fullUrl value="http://test.fhir.ch/r4/Practitioner/HausarztDupont"/>
    <resource>
      <Practitioner>
        <id value="HausarztDupont"/>
        <meta>
          <profile value="http://chmed20af.emediplan.ch/fhir/StructureDefinition/chmed20af-analyzer-practitioner"/>
        </meta>
        <text>
          <status value="generated"/><div xmlns="http://www.w3.org/1999/xhtml"><p><b>Generated Narrative with Details</b></p><p><b>id</b>: HausarztDupont</p><p><b>meta</b>: </p><p><b>identifier</b>: 7601000234466</p><p><b>name</b>: Hausarzt Dupont </p></div>
        </text>
        <identifier>
          <system value="urn:oid:2.51.1.3"/>
          <value value="7601000234466"/>
        </identifier>
        <name>
          <family value="Dupont"/>
          <given value="Hausarzt"/>
        </name>
      </Practitioner>
    </resource>
  </entry>
  <entry>
    <fullUrl value="http://test.fhir.ch/r4/Device/Analyzer"/>
    <resource>
      <Device>
        <id value="Analyzer"/>
        <meta>
          <profile value="http://hl7.org/fhir/StructureDefinition/Device"/>
        </meta>
        <text>
          <status value="generated"/><div xmlns="http://www.w3.org/1999/xhtml"><p><b>Generated Narrative with Details</b></p><p><b>id</b>: Analyzer</p><p><b>meta</b>: </p><h3>DeviceNames</h3><table class="grid"><tr><td>-</td><td><b>Name</b></td><td><b>Type</b></td></tr><tr><td>*</td><td>Analyzer</td><td>user-friendly-name</td></tr></table><h3>Versions</h3><table class="grid"><tr><td>-</td><td><b>Value</b></td></tr><tr><td>*</td><td>V1</td></tr></table></div>
        </text>
        <deviceName>
          <name value="Analyzer"/>
          <type value="user-friendly-name"/>
        </deviceName>
        <version>
          <value value="V1"/>
        </version>
      </Device>
    </resource>
  </entry>
<!--  Section entry 1: MedicationStatement  -->
  <entry>
    <fullUrl value="http://test.fhir.ch/r4/MedicationStatement/A7-MedStatBrufen-600-Analyzer"/>
    <resource>
      <MedicationStatement>
        <id value="A7-MedStatBrufen-600-Analyzer"/>
        <meta>
          <profile value="http://chmed20af.emediplan.ch/fhir/StructureDefinition/chmed20af-analyzer-medicationstatement"/>
        </meta>
        <text>
          <status value="generated"/><div xmlns="http://www.w3.org/1999/xhtml"><p><b>Generated Narrative with Details</b></p><p><b>id</b>: A7-MedStatBrufen-600-Analyzer</p><p><b>meta</b>: </p><p><b>contained</b>: </p><p><b>status</b>: completed</p><p><b>category</b>: Muskel- und Skelettsystem <span style="background: LightGoldenRodYellow">(Details : {http://www.whocc.no/atc code 'M' = 'M', given as 'Muskel- und Skelettsystem'})</span></p><p><b>medication</b>: unknown resource contained</p><p><b>subject</b>: <a href="#backboneelement_MonikaWegmueller">Generated Summary: unknown resource entry</a></p><p><b>informationSource</b>: <a href="#backboneelement_HausarztDupont">Generated Summary: unknown resource entry</a></p><p><b>derivedFrom</b>: <a href="#backboneelement_A7-MedStatBrufen-600">Generated Summary: unknown resource entry</a></p><p><b>dosage</b>: , </p></div>
        </text>
        <contained>
          <Medication>
            <id value="cont1"/>
            <code>
              <coding>
                <system value="urn:oid:2.51.1.1"/>
                <code value="7680450311951"/>
                <display value="Brufen 600 mg Filmtabl"/>
              </coding>
              <text value="Brufen 600 mg Filmtabl"/>
            </code>
            <form>
              <coding>
                <system value="urn:oid:0.4.0.127.0.16.1.1.2.1"/>
                <code value="10221000"/>
                <display value="Film-coated tablet"/>
              </coding>
            </form>
            <amount>
              <numerator>
                <value value="20"/>
              </numerator>
              <denominator>
                <value value="1"/>
              </denominator>
            </amount>
            <ingredient>
              <itemCodeableConcept>
                <coding>
                  <system value="http://snomed.info/sct"/>
                  <code value="387207008"/>
                  <display value="Ibuprofen (substance)"/>
                </coding>
              </itemCodeableConcept>
              <strength>
                <numerator>
                  <value value="600"/>
                  <unit value="mg"/>
                </numerator>
                <denominator>
                  <value value="1"/>
                </denominator>
              </strength>
            </ingredient>
          </Medication>
        </contained>
        <status value="completed"/>
        <category>
          <coding>
            <system value="http://www.whocc.no/atc"/>
            <code value="M"/>
            <display value="Muskel- und Skelettsystem"/>
          </coding>
        </category>
        <medicationReference>
          <reference value="#cont1"/>
        </medicationReference>
        <subject>
          <reference value="Patient/MonikaWegmueller"/>
        </subject>
        <informationSource>
          <reference value="Practitioner/HausarztDupont"/>
        </informationSource>
      <!--  History  -->
        <derivedFrom>
          <reference value="MedicationStatement/A7-MedStatBrufen-600"/>
        </derivedFrom>
      <!-- <reasonCode>
                    <text value="Schmerzen"/>
                </reasonCode> -->
        <dosage>
          <text value="1 Tablette morgens"/>
        </dosage>
        <dosage>
          <timing>
            <repeat>
              <boundsPeriod>
                <start value="2020-02-01"/>
              </boundsPeriod>
              <when value="CM"/>
            </repeat>
          </timing>
          <route>
            <coding>
              <system value="urn:oid:0.4.0.127.0.16.1.1.2.1"/>
              <code value="20053000"/>
              <display value="Oral use"/>
            </coding>
          </route>
          <doseAndRate>
            <doseQuantity>
              <value value="1"/>
              <unit value="Tablette"/>
              <system value="http://unitsofmeasure.org"/>
              <code value="1"/>
            </doseQuantity>
          </doseAndRate>
        </dosage>
      </MedicationStatement>
    </resource>
  </entry>
<!--  Section entry 2: MedicationStatement  -->
  <entry>
    <fullUrl value="http://test.fhir.ch/r4/MedicationStatement/A7-MedStatBrufenRetard-800-Analyzer"/>
    <resource>
      <MedicationStatement>
        <id value="A7-MedStatBrufenRetard-800-Analyzer"/>
        <meta>
          <profile value="http://chmed20af.emediplan.ch/fhir/StructureDefinition/chmed20af-analyzer-medicationstatement"/>
        </meta>
        <text>
          <status value="generated"/><div xmlns="http://www.w3.org/1999/xhtml"><p><b>Generated Narrative with Details</b></p><p><b>id</b>: A7-MedStatBrufenRetard-800-Analyzer</p><p><b>meta</b>: </p><p><b>contained</b>: </p><p><b>status</b>: completed</p><p><b>category</b>: Muskel- und Skelettsystem <span style="background: LightGoldenRodYellow">(Details : {http://www.whocc.no/atc code 'M' = 'M', given as 'Muskel- und Skelettsystem'})</span></p><p><b>medication</b>: unknown resource contained</p><p><b>subject</b>: <a href="#backboneelement_MonikaWegmueller">Generated Summary: unknown resource entry</a></p><p><b>informationSource</b>: <a href="#backboneelement_HausarztDupont">Generated Summary: unknown resource entry</a></p><p><b>derivedFrom</b>: </p><ul><li><a href="#backboneelement_A7-MedStatBrufen-600">Generated Summary: unknown resource entry</a></li><li><a href="#backboneelement_A7-History-ChangeGalenic">Generated Summary: unknown resource entry</a></li><li><a href="#backboneelement_A7-MedStatBrufenRetard-800">Generated Summary: unknown resource entry</a></li></ul><p><b>dosage</b>: , </p></div>
        </text>
        <contained>
          <Medication>
            <id value="cont1"/>
            <code>
              <coding>
                <system value="urn:oid:2.51.1.1"/>
                <code value="7680500720610"/>
                <display value="Brufen retard 800 mg Filmtabl"/>
              </coding>
              <text value="Brufen retard 800 mg Filmtabl"/>
            </code>
            <form>
              <coding>
                <system value="urn:oid:0.4.0.127.0.16.1.1.2.1"/>
                <code value="10221000"/>
                <display value="Film-coated tablet"/>
              </coding>
            </form>
            <amount>
              <numerator>
                <value value="20"/>
              </numerator>
              <denominator>
                <value value="1"/>
              </denominator>
            </amount>
            <ingredient>
              <itemCodeableConcept>
                <coding>
                  <system value="http://snomed.info/sct"/>
                  <code value="387207008"/>
                  <display value="Ibuprofen (substance)"/>
                </coding>
              </itemCodeableConcept>
              <strength>
                <numerator>
                  <value value="800"/>
                  <unit value="mg"/>
                </numerator>
                <denominator>
                  <value value="1"/>
                </denominator>
              </strength>
            </ingredient>
          </Medication>
        </contained>
        <status value="completed"/>
        <category>
          <coding>
            <system value="http://www.whocc.no/atc"/>
            <code value="M"/>
            <display value="Muskel- und Skelettsystem"/>
          </coding>
        </category>
        <medicationReference>
          <reference value="#cont1"/>
        </medicationReference>
        <subject>
          <reference value="Patient/MonikaWegmueller"/>
        </subject>
        <informationSource>
          <reference value="Practitioner/HausarztDupont"/>
        </informationSource>
      <!--  History  -->
        <derivedFrom>
          <reference value="MedicationStatement/A7-MedStatBrufen-600"/>
        </derivedFrom>
        <derivedFrom>
          <reference value="Observation/A7-History-ChangeGalenic"/>
        </derivedFrom>
        <derivedFrom>
          <reference value="MedicationStatement/A7-MedStatBrufenRetard-800"/>
        </derivedFrom>
      <!-- <reasonCode>
                    <text value="Schmerzen"/>
                </reasonCode> -->
        <dosage>
          <text value="1 Tablette morgens"/>
        </dosage>
        <dosage>
          <timing>
            <repeat>
              <boundsPeriod>
                <start value="2020-02-01"/>
              </boundsPeriod>
              <when value="CM"/>
            </repeat>
          </timing>
          <route>
            <coding>
              <system value="urn:oid:0.4.0.127.0.16.1.1.2.1"/>
              <code value="20053000"/>
              <display value="Oral use"/>
            </coding>
          </route>
          <doseAndRate>
            <doseQuantity>
              <value value="1"/>
              <unit value="Tablette"/>
              <system value="http://unitsofmeasure.org"/>
              <code value="1"/>
            </doseQuantity>
          </doseAndRate>
        </dosage>
      </MedicationStatement>
    </resource>
  </entry>
<!--  Reference from MedicationStatement.derivedFrom (History)  -->
  <entry>
    <fullUrl value="http://test.fhir.ch/r4/MedicationStatement/A7-MedStatBrufen-600"/>
    <resource>
      <MedicationStatement>
        <id value="A7-MedStatBrufen-600"/>
        <meta>
          <profile value="http://chmed20af.emediplan.ch/fhir/StructureDefinition/chmed20af-analyzer-medicationstatement"/>
        </meta>
        <text>
          <status value="generated"/><div xmlns="http://www.w3.org/1999/xhtml"><p><b>Generated Narrative with Details</b></p><p><b>id</b>: A7-MedStatBrufen-600</p><p><b>meta</b>: </p><p><b>contained</b>: </p><p><b>status</b>: completed</p><p><b>category</b>: Muskel- und Skelettsystem <span style="background: LightGoldenRodYellow">(Details : {http://www.whocc.no/atc code 'M' = 'M', given as 'Muskel- und Skelettsystem'})</span></p><p><b>medication</b>: unknown resource contained</p><p><b>subject</b>: <a href="#backboneelement_MonikaWegmueller">Generated Summary: unknown resource entry</a></p><p><b>informationSource</b>: <a href="#backboneelement_HausarztDupont">Generated Summary: unknown resource entry</a></p><p><b>reasonCode</b>: Schmerzen <span style="background: LightGoldenRodYellow">(Details )</span></p><p><b>dosage</b>: , </p></div>
        </text>
        <contained>
          <Medication>
            <id value="cont1"/>
            <code>
              <coding>
                <system value="urn:oid:2.51.1.1"/>
                <code value="7680450311951"/>
                <display value="Brufen 600 mg Filmtabl"/>
              </coding>
              <text value="Brufen 600 mg Filmtabl"/>
            </code>
            <form>
              <coding>
                <system value="urn:oid:0.4.0.127.0.16.1.1.2.1"/>
                <code value="10221000"/>
                <display value="Film-coated tablet"/>
              </coding>
            </form>
            <amount>
              <numerator>
                <value value="20"/>
              </numerator>
              <denominator>
                <value value="1"/>
              </denominator>
            </amount>
            <ingredient>
              <itemCodeableConcept>
                <coding>
                  <system value="http://snomed.info/sct"/>
                  <code value="387207008"/>
                  <display value="Ibuprofen (substance)"/>
                </coding>
              </itemCodeableConcept>
              <strength>
                <numerator>
                  <value value="600"/>
                  <unit value="mg"/>
                </numerator>
                <denominator>
                  <value value="1"/>
                </denominator>
              </strength>
            </ingredient>
          </Medication>
        </contained>
        <extension url="http://chmed20af.emediplan.ch/fhir/StructureDefinition/chmed20af-infoinputdocument">
          <extension url="http://chmed20af.emediplan.ch/fhir/StructureDefinition/chmed20af-inputdocumentsource">
            <valueString value="Cara"/>
          </extension>
          <extension url="http://chmed20af.emediplan.ch/fhir/StructureDefinition/chmed20af-inputdocumenttype">
            <valueCodeableConcept>
              <coding>
                <system value="http://loinc.org"/>
                <code value="56445-0"/>
                <display value="Medication summary"/>
              </coding>
            </valueCodeableConcept>
          </extension>
          <extension url="http://chmed20af.emediplan.ch/fhir/StructureDefinition/chmed20af-inputdocumentdate">
            <valueDateTime value="2020-02-01T09:00:00+01:00"/>
          </extension>
        </extension>
        <status value="completed"/>
        <category>
          <coding>
            <system value="http://www.whocc.no/atc"/>
            <code value="M"/>
            <display value="Muskel- und Skelettsystem"/>
          </coding>
        </category>
        <medicationReference>
          <reference value="#cont1"/>
        </medicationReference>
        <subject>
          <reference value="Patient/MonikaWegmueller"/>
        </subject>
        <informationSource>
          <reference value="Practitioner/HausarztDupont"/>
        </informationSource>
        <reasonCode>
          <text value="Schmerzen"/>
        </reasonCode>
        <dosage>
          <text value="1 Tablette morgens"/>
        </dosage>
        <dosage>
          <timing>
            <repeat>
              <boundsPeriod>
                <start value="2020-02-01"/>
              </boundsPeriod>
              <when value="CM"/>
            </repeat>
          </timing>
          <route>
            <coding>
              <system value="urn:oid:0.4.0.127.0.16.1.1.2.1"/>
              <code value="20053000"/>
              <display value="Oral use"/>
            </coding>
          </route>
          <doseAndRate>
            <doseQuantity>
              <value value="1"/>
              <unit value="Tablette"/>
              <system value="http://unitsofmeasure.org"/>
              <code value="1"/>
            </doseQuantity>
          </doseAndRate>
        </dosage>
      </MedicationStatement>
    </resource>
  </entry>
<!--  Reference from MedicationStatement.derivedFrom (History)  -->
  <entry>
    <fullUrl value="http://test.fhir.ch/r4/Observation/A7-History-ChangeGalenic"/>
    <resource>
      <Observation>
        <id value="A7-History-ChangeGalenic"/>
        <meta>
          <profile value="http://chmed20af.emediplan.ch/fhir/StructureDefinition/chmed20af-analyzer-observationhistory"/>
        </meta>
        <text>
          <status value="generated"/><div xmlns="http://www.w3.org/1999/xhtml"><p><b>Generated Narrative with Details</b></p><p><b>id</b>: A7-History-ChangeGalenic</p><p><b>meta</b>: </p><p><b>status</b>: final</p><p><b>code</b>: CHANGE <span style="background: LightGoldenRodYellow">(Details : {urn:oid:1.3.6.1.4.1.19376.1.9.2.1 code 'CHANGE' = 'CHANGE)</span></p><p><b>value</b>: changeGalenic <span style="background: LightGoldenRodYellow">(Details : {http://chmed20af.emediplan.ch/fhir/CodeSystem/chmed20af-codesystem-history-changes code 'changeGalenic' = 'changeGalenic)</span></p></div>
        </text>
        <status value="final"/>
        <code>
          <coding>
            <system value="urn:oid:1.3.6.1.4.1.19376.1.9.2.1"/>
            <code value="CHANGE"/>
          </coding>
        </code>
        <valueCodeableConcept>
          <coding>
            <system value="http://chmed20af.emediplan.ch/fhir/CodeSystem/chmed20af-codesystem-history-changes"/>
            <code value="changeGalenic"/>
          </coding>
        </valueCodeableConcept>
      </Observation>
    </resource>
  </entry>
<!--  Reference from MedicationStatement.derivedFrom (History)  -->
  <entry>
    <fullUrl value="http://test.fhir.ch/r4/MedicationStatement/A7-MedStatBrufenRetard-800"/>
    <resource>
      <MedicationStatement>
        <id value="A7-MedStatBrufenRetard-800"/>
        <meta>
          <profile value="http://chmed20af.emediplan.ch/fhir/StructureDefinition/chmed20af-analyzer-medicationstatement"/>
        </meta>
        <text>
          <status value="generated"/><div xmlns="http://www.w3.org/1999/xhtml"><p><b>Generated Narrative with Details</b></p><p><b>id</b>: A7-MedStatBrufenRetard-800</p><p><b>meta</b>: </p><p><b>contained</b>: </p><p><b>status</b>: completed</p><p><b>category</b>: Muskel- und Skelettsystem <span style="background: LightGoldenRodYellow">(Details : {http://www.whocc.no/atc code 'M' = 'M', given as 'Muskel- und Skelettsystem'})</span></p><p><b>medication</b>: unknown resource contained</p><p><b>subject</b>: <a href="#backboneelement_MonikaWegmueller">Generated Summary: unknown resource entry</a></p><p><b>informationSource</b>: <a href="#backboneelement_HausarztDupont">Generated Summary: unknown resource entry</a></p><p><b>reasonCode</b>: Schmerzen <span style="background: LightGoldenRodYellow">(Details )</span></p><p><b>dosage</b>: , </p></div>
        </text>
        <contained>
          <Medication>
            <id value="cont1"/>
            <code>
              <coding>
                <system value="urn:oid:2.51.1.1"/>
                <code value="7680500720610"/>
                <display value="Brufen retard 800 mg Filmtabl"/>
              </coding>
              <text value="Brufen retard 800 mg Filmtabl"/>
            </code>
            <form>
              <coding>
                <system value="urn:oid:0.4.0.127.0.16.1.1.2.1"/>
                <code value="10221000"/>
                <display value="Film-coated tablet"/>
              </coding>
            </form>
            <amount>
              <numerator>
                <value value="20"/>
              </numerator>
              <denominator>
                <value value="1"/>
              </denominator>
            </amount>
            <ingredient>
              <itemCodeableConcept>
                <coding>
                  <system value="http://snomed.info/sct"/>
                  <code value="387207008"/>
                  <display value="Ibuprofen (substance)"/>
                </coding>
              </itemCodeableConcept>
              <strength>
                <numerator>
                  <value value="800"/>
                  <unit value="mg"/>
                </numerator>
                <denominator>
                  <value value="1"/>
                </denominator>
              </strength>
            </ingredient>
          </Medication>
        </contained>
        <extension url="http://chmed20af.emediplan.ch/fhir/StructureDefinition/chmed20af-infoinputdocument">
          <extension url="http://chmed20af.emediplan.ch/fhir/StructureDefinition/chmed20af-inputdocumentsource">
            <valueString value="Cara"/>
          </extension>
          <extension url="http://chmed20af.emediplan.ch/fhir/StructureDefinition/chmed20af-inputdocumenttype">
            <valueCodeableConcept>
              <coding>
                <system value="http://loinc.org"/>
                <code value="56445-0"/>
                <display value="Medication summary"/>
              </coding>
            </valueCodeableConcept>
          </extension>
          <extension url="http://chmed20af.emediplan.ch/fhir/StructureDefinition/chmed20af-inputdocumentdate">
            <valueDateTime value="2020-02-01T09:15:00+01:00"/>
          </extension>
        </extension>
        <status value="completed"/>
        <category>
          <coding>
            <system value="http://www.whocc.no/atc"/>
            <code value="M"/>
            <display value="Muskel- und Skelettsystem"/>
          </coding>
        </category>
        <medicationReference>
          <reference value="#cont1"/>
        </medicationReference>
        <subject>
          <reference value="Patient/MonikaWegmueller"/>
        </subject>
        <informationSource>
          <reference value="Practitioner/HausarztDupont"/>
        </informationSource>
        <reasonCode>
          <text value="Schmerzen"/>
        </reasonCode>
        <dosage>
          <text value="1 Tablette morgens"/>
        </dosage>
        <dosage>
          <timing>
            <repeat>
              <boundsPeriod>
                <start value="2020-02-01"/>
              </boundsPeriod>
              <when value="CM"/>
            </repeat>
          </timing>
          <route>
            <coding>
              <system value="urn:oid:0.4.0.127.0.16.1.1.2.1"/>
              <code value="20053000"/>
              <display value="Oral use"/>
            </coding>
          </route>
          <doseAndRate>
            <doseQuantity>
              <value value="1"/>
              <unit value="Tablette"/>
              <system value="http://unitsofmeasure.org"/>
              <code value="1"/>
            </doseQuantity>
          </doseAndRate>
        </dosage>
      </MedicationStatement>
    </resource>
  </entry>
</Bundle>