{
  "resourceType": "Bundle",
  "id": "chmed20af-card-bundle-s01",
  "meta": {
    "lastUpdated": "2019-05-29T15:00:54.948+02:00",
    "profile": [
      "http://chmed20af.emediplan.ch/fhir/StructureDefinition/chmed20af-card-bundle"
    ]
  },
  "identifier": {
    "system": "http://emediplan.ch/chmed20af/id",
    "value": "26d3dff7-ab05-4737-a49c-5eccd33595f6"
  },
  "type": "document",
  "timestamp": "2016-09-12T11:46:09+02:00",
  "entry": [
    {
      "fullUrl": "http://localhost:8080/r4/Composition/3",
      "resource": {
        "resourceType": "Composition",
        "id": "3",
        "meta": {
          "versionId": "1",
          "lastUpdated": "2019-05-29T14:58:58.181+02:00",
          "profile": [
            "http://chmed20af.emediplan.ch/fhir/StructureDefinition/chmed20af-card-composition"
          ]
        },
        "language": "de-CH",
        "text": {
          "status": "generated",
          "div": "<div xmlns=\"http://www.w3.org/1999/xhtml\" xml:lang=\"de-CH\" lang=\"de-CH\">Medication Card document </div>"
        },
        "extension": [
          {
            "url": "http://chmed20af.emediplan.ch/fhir/StructureDefinition/chmed20af-privatefield",
            "extension": [
              {
                "url": "name",
                "valueString": "PrivateFieldNameSample1"
              },
              {
                "url": "value",
                "valueString": "PrivateFieldValueSample1"
              }
            ]
          },
          {
            "url": "http://fhir.ch/ig/ch-core/StructureDefinition/ch-ext-epr-setid",
            "valueIdentifier": {
              "system": "http://emediplan.ch/chmed20af/id",
              "value": "26d3dff7-ab05-4737-a49c-5eccd33595f6"
            }
          },
          {
            "url": "http://fhir.ch/ig/ch-core/StructureDefinition/ch-ext-epr-versionnumber",
            "valueUnsignedInt": 1
          },
          {
            "url": "http://fhir.ch/ig/ch-core/StructureDefinition/ch-ext-epr-informationrecipient",
            "valueReference": {
              "reference": "Practitioner/9"
            }
          }
        ],
        "identifier": {
          "system": "http://emediplan.ch/chmed20af/id",
          "value": "26d3dff7-ab05-4737-a49c-5eccd33595f6"
        },
        "status": "final",
        "type": {
          "coding": [
            {
              "system": "http://snomed.info/sct",
              "code": "721912009",
              "display": "Medication summary document (record artifact)"
            }
          ]
        },
        "subject": {
          "reference": "http://localhost:8080/r4/Patient/7"
        },
        "date": "2016-09-12T11:46:09+02:00",
        "author": [
          {
            "reference": "Practitioner/9"
          }
        ],
        "title": "Medikationsplan",
        "confidentiality": "N",
        "_confidentiality": {
          "extension": [
            {
              "url": "http://fhir.ch/ig/ch-core/StructureDefinition/ch-ext-epr-confidentialitycode",
              "valueCodeableConcept": {
                "coding": [
                  {
                    "system": "http://snomed.info/sct",
                    "code": "17621005",
                    "display": "Normally accessible"
                  }
                ]
              }
            }
          ]
        },
        "attester": [
          {
            "mode": "professional",
            "time": "2016-09-12T11:46:09+02:00",
            "party": {
              "reference": "Practitioner/9"
            }
          }
        ],
        "custodian": {
          "reference": "Organization/10"
        },
        "section": [
          {
            "title": "Aktuelle Medikation",
            "code": {
              "coding": [
                {
                  "system": "http://loinc.org",
                  "code": "10160-0",
                  "display": "History of medication use"
                }
              ]
            },
            "text": {
              "status": "additional",
              "div": "<div xmlns=\"http://www.w3.org/1999/xhtml\"> Aktuelle Medikation </div>"
            },
            "entry": [
              {
                "reference": "MedicationStatement/11"
              },
              {
                "reference": "MedicationStatement/12"
              },
              {
                "reference": "MedicationStatement/13"
              },
              {
                "reference": "MedicationStatement/14"
              },
              {
                "reference": "MedicationStatement/21"
              }
            ]
          },
          {
            "title": "Gesundheitsbelange",
            "code": {
              "coding": [
                {
                  "system": "http://loinc.org",
                  "code": "75310-3",
                  "display": "Health Concerns"
                }
              ]
            },
            "entry": [
              {
                "reference": "Observation/24"
              },
              {
                "reference": "Observation/23"
              },
              {
                "reference": "Observation/25"
              },
              {
                "reference": "Observation/26"
              },
              {
                "reference": "Observation/27"
              },
              {
                "reference": "Condition/28"
              },
              {
                "reference": "Condition/29"
              },
              {
                "reference": "Condition/30"
              },
              {
                "reference": "Condition/31"
              },
              {
                "reference": "Condition/32"
              },
              {
                "reference": "Condition/33"
              }
            ]
          },
          {
            "title": "Bemerkungen",
            "code": {
              "coding": [
                {
                  "system": "http://loinc.org",
                  "code": "48767-8",
                  "display": "Annotation comment"
                }
              ]
            },
            "text": {
              "status": "additional",
              "div": "<div xmlns=\"http://www.w3.org/1999/xhtml\"> Bemerkung </div>"
            }
          }
        ]
      }
    },
    {
      "fullUrl": "http://localhost:8080/r4/Condition/32",
      "resource": {
        "resourceType": "Condition",
        "id": "32",
        "meta": {
          "versionId": "1",
          "lastUpdated": "2019-05-29T14:58:58.181+02:00",
          "profile": [
            "http://chmed20af.emediplan.ch/fhir/StructureDefinition/chmed20af-condition-risks"
          ]
        },
        "text": {
          "status": "generated",
          "div": "<div xmlns=\"http://www.w3.org/1999/xhtml\">Driver - Excluded</div>"
        },
        "clinicalStatus": {
          "coding": [
            {
              "system": "http://terminology.hl7.org/CodeSystem/condition-clinical",
              "code": "active"
            }
          ]
        },
        "category": [
          {
            "coding": [
              {
                "system": "http://chmed20af.emediplan.ch/fhir/CodeSystem/chmed20af-codesystem-risks-category",
                "code": "5",
                "display": "Driver"
              }
            ]
          }
        ],
        "subject": {
          "reference": "Patient/7"
        }
      }
    },
    {
      "fullUrl": "http://localhost:8080/r4/Condition/33",
      "resource": {
        "resourceType": "Condition",
        "id": "33",
        "meta": {
          "versionId": "1",
          "lastUpdated": "2019-05-29T14:58:58.181+02:00",
          "profile": [
            "http://chmed20af.emediplan.ch/fhir/StructureDefinition/chmed20af-condition-risks"
          ]
        },
        "text": {
          "status": "generated",
          "div": "<div xmlns=\"http://www.w3.org/1999/xhtml\">Allergies -Betablocker-Allergie (Propranolol-Typ), Penicillin-Allergie</div>"
        },
        "clinicalStatus": {
          "coding": [
            {
              "system": "http://terminology.hl7.org/CodeSystem/condition-clinical",
              "code": "active"
            }
          ]
        },
        "category": [
          {
            "coding": [
              {
                "system": "http://chmed20af.emediplan.ch/fhir/CodeSystem/chmed20af-codesystem-risks-category",
                "code": "6",
                "display": "Allergies"
              }
            ]
          }
        ],
        "code": {
          "coding": [
            {
              "system": "http://chmed20af.emediplan.ch/fhir/CodeSystem/chmed20af-codesystem-risks-cdscode",
              "code": "555",
              "display": "Betablocker-Allergie (Propranolol-Typ)"
            },
            {
              "system": "http://chmed20af.emediplan.ch/fhir/CodeSystem/chmed20af-codesystem-risks-cdscode",
              "code": "571",
              "display": "Penicillin-Allergie"
            }
          ]
        },
        "subject": {
          "reference": "Patient/7"
        }
      }
    },
    {
      "fullUrl": "http://localhost:8080/r4/Patient/7",
      "resource": {
        "resourceType": "Patient",
        "id": "7",
        "meta": {
          "versionId": "1",
          "lastUpdated": "2019-05-29T14:58:58.181+02:00",
          "profile": [
            "http://chmed20af.emediplan.ch/fhir/StructureDefinition/chmed20af-card-patient"
          ]
        },
        "text": {
          "status": "generated",
          "div": "<div xmlns=\"http://www.w3.org/1999/xhtml\">Maxima, Matter, geb 1981-01-12 </div>"
        },
        "identifier": [
          {
            "type": {
              "coding": [
                {
                  "system": "http://terminology.hl7.org/CodeSystem/v2-0203",
                  "code": "MR"
                }
              ]
            },
            "system": "urn:oid:2.999",
            "value": "12345678"
          }
        ],
        "name": [
          {
            "family": "Matter",
            "given": [
              "Maxima"
            ]
          }
        ],
        "telecom": [
          {
            "system": "phone",
            "value": "+41588512600",
            "use": "home"
          }
        ],
        "gender": "female",
        "birthDate": "1981-01-12",
        "address": [
          {
            "line": [
              "Untermattweg 8"
            ],
            "city": "Bern",
            "postalCode": "3027"
          }
        ],
        "communication": [
          {
            "language": {
              "coding": [
                {
                  "system": "urn:ietf:bcp:47",
                  "code": "de-CH",
                  "display": "German (Region=Switzerland)"
                }
              ]
            },
            "preferred": true
          }
        ]
      }
    },
    {
      "fullUrl": "http://localhost:8080/r4/Practitioner/9",
      "resource": {
        "resourceType": "Practitioner",
        "id": "9",
        "meta": {
          "versionId": "1",
          "lastUpdated": "2019-05-29T14:58:58.181+02:00",
          "profile": [
            "http://chmed20af.emediplan.ch/fhir/StructureDefinition/chmed20af-practitioner"
          ]
        },
        "text": {
          "status": "generated",
          "div": "<div xmlns=\"http://www.w3.org/1999/xhtml\">\n                  <p>Thomas Wälti </p>\n               </div>"
        },
        "identifier": [
          {
            "use": "official",
            "system": "urn:oid:2.51.1.3",
            "value": "7601003178999"
          },
          {
            "use": "official",
            "system": "urn:oid:2.16.756.5.30.1.123.100.2.1.1",
            "value": "ZSR"
          }
        ],
        "name": [
          {
            "family": "Wälti",
            "given": [
              "Thomas"
            ]
          }
        ]
      }
    },
    {
      "fullUrl": "http://localhost:8080/r4/Organization/10",
      "resource": {
        "resourceType": "Organization",
        "id": "10",
        "meta": {
          "profile": [
            "http://fhir.ch/ig/ch-core/StructureDefinition/ch-core-organization-epr"
          ]
        },
        "text": {
          "status": "generated",
          "div": "<div xmlns=\"http://www.w3.org/1999/xhtml\">\n                  <p>Hausarzt\n                  </p>\n               </div>"
        },
        "identifier": [
          {
            "use": "official",
            "system": "urn:oid:2.51.1.3",
            "value": "7601003178999"
          }
        ],
        "name": "Hausarzt"
      }
    },
    {
      "fullUrl": "http://localhost:8080/r4/MedicationStatement/11",
      "resource": {
        "resourceType": "MedicationStatement",
        "id": "11",
        "meta": {
          "versionId": "1",
          "lastUpdated": "2019-05-29T14:58:58.181+02:00",
          "profile": [
            "http://chmed20af.emediplan.ch/fhir/StructureDefinition/chmed20af-card-medicationstatement"
          ]
        },
        "text": {
          "status": "generated",
          "div": "<div xmlns=\"http://www.w3.org/1999/xhtml\">ROACCUTAN Kaps 10 mg 30 Stk gegen Akne\tbei Bedarf ab 12.9.2016</div>"
        },
        "contained": [
          {
            "resourceType": "Medication",
            "id": "cont1",
            "code": {
              "coding": [
                {
                  "system": "urn:oid:2.51.1.1",
                  "code": "7680453070343",
                  "display": "ROACCUTAN Kaps 10 mg 30 Stk"
                }
              ],
              "text": "ROACCUTAN Kaps 10 mg 30 Stk"
            },
            "form": {
              "coding": [
                {
                  "system": "urn:oid:0.4.0.127.0.16.1.1.2.1",
                  "code": "10210000",
                  "display": "Capsule, hard"
                }
              ]
            },
            "ingredient": [
              {
                "itemCodeableConcept": {
                  "coding": [
                    {
                      "system": "http://snomed.info/sct",
                      "code": "387208003",
                      "display": "Isotretinoin (substance)"
                    }
                  ]
                },
                "strength": {
                  "numerator": {
                    "value": 10,
                    "unit": "mg"
                  },
                  "denominator": {
                    "value": 1
                  }
                }
              }
            ]
          }
        ],
        "status": "completed",
        "medicationReference": {
          "reference": "#cont1"
        },
        "subject": {
          "reference": "Patient/7"
        },
        "informationSource": {
          "reference": "Practitioner/9"
        },
        "reasonCode": [
          {
            "text": "Akne"
          }
        ],
        "note": [
          {
            "text": "-"
          }
        ],
        "dosage": [
          {
            "text": "bei Bedarf"
          },
          {
            "timing": {
              "repeat": {
                "boundsPeriod": {
                  "start": "2016-09-12",
                  "end": "2020-09-12"
                },
                "when": [
                  "PCM"
                ]
              }
            },
            "asNeededBoolean": true,
            "route": {
              "coding": [
                {
                  "system": "urn:oid:0.4.0.127.0.16.1.1.2.1",
                  "code": "20053000",
                  "display": "Oral use"
                }
              ]
            },
            "doseAndRate": [
              {
                "doseQuantity": {
                  "value": 1,
                  "unit": "Stück",
                  "system": "http://unitsofmeasure.org",
                  "code": "1"
                }
              }
            ]
          }
        ]
      }
    },
    {
      "fullUrl": "http://localhost:8080/r4/MedicationStatement/12",
      "resource": {
        "resourceType": "MedicationStatement",
        "id": "12",
        "meta": {
          "versionId": "1",
          "lastUpdated": "2019-05-29T14:58:58.181+02:00",
          "profile": [
            "http://chmed20af.emediplan.ch/fhir/StructureDefinition/chmed20af-card-medicationstatement"
          ]
        },
        "text": {
          "status": "generated",
          "div": "<div xmlns=\"http://www.w3.org/1999/xhtml\"> ASPIRIN CARDIO Filmtabl 100 mg 28 Stk 0-1-0-0 ab 10.2.2016 </div>"
        },
        "contained": [
          {
            "resourceType": "Medication",
            "id": "cont2",
            "code": {
              "coding": [
                {
                  "system": "urn:oid:2.51.1.1",
                  "code": "7680517950680",
                  "display": "ASPIRIN CARDIO Filmtabl 100 mg 28 Stk"
                }
              ],
              "text": "ASPIRIN CARDIO Filmtabl 100 mg 28 Stk"
            },
            "form": {
              "coding": [
                {
                  "system": "urn:oid:0.4.0.127.0.16.1.1.2.1",
                  "code": "10221000",
                  "display": "Film-coated tablet"
                }
              ]
            },
            "ingredient": [
              {
                "itemCodeableConcept": {
                  "coding": [
                    {
                      "system": "http://snomed.info/sct",
                      "code": "387458008",
                      "display": "Aspirin (substance)"
                    }
                  ]
                },
                "strength": {
                  "numerator": {
                    "value": 100,
                    "unit": "mg"
                  },
                  "denominator": {
                    "value": 1
                  }
                }
              }
            ]
          }
        ],
        "status": "completed",
        "medicationReference": {
          "reference": "#cont2"
        },
        "subject": {
          "reference": "Patient/7"
        },
        "informationSource": {
          "reference": "Practitioner/9"
        },
        "reasonCode": [
          {
            "text": "Blutverdünnung"
          }
        ],
        "dosage": [
          {
            "text": "1 Tablette morgens"
          },
          {
            "timing": {
              "repeat": {
                "boundsPeriod": {
                  "start": "2016-09-12",
                  "end": "2020-09-12"
                },
                "when": [
                  "PCM"
                ]
              }
            },
            "route": {
              "coding": [
                {
                  "system": "urn:oid:0.4.0.127.0.16.1.1.2.1",
                  "code": "20053000",
                  "display": "Oral use"
                }
              ]
            },
            "doseAndRate": [
              {
                "doseQuantity": {
                  "value": 1,
                  "unit": "Stück",
                  "system": "http://unitsofmeasure.org",
                  "code": "1"
                }
              }
            ]
          }
        ]
      }
    },
    {
      "fullUrl": "http://localhost:8080/r4/MedicationStatement/13",
      "resource": {
        "resourceType": "MedicationStatement",
        "id": "13",
        "meta": {
          "versionId": "1",
          "lastUpdated": "2019-05-29T14:58:58.181+02:00",
          "profile": [
            "http://chmed20af.emediplan.ch/fhir/StructureDefinition/chmed20af-card-medicationstatement"
          ]
        },
        "text": {
          "status": "generated",
          "div": "<div xmlns=\"http://www.w3.org/1999/xhtml\"> BELOC ZOK Ret Tabl 25 mg 30 Stk - 1-0-1-0 ab 2.10.2016 </div>"
        },
        "contained": [
          {
            "resourceType": "Medication",
            "id": "cont3",
            "code": {
              "coding": [
                {
                  "system": "urn:oid:2.51.1.1",
                  "code": "7680521101573",
                  "display": "BELOC ZOK Ret Tabl 25 mg 30 Stk"
                }
              ],
              "text": "BELOC ZOK Ret Tabl 25 mg 30 Stk"
            },
            "form": {
              "coding": [
                {
                  "system": "urn:oid:0.4.0.127.0.16.1.1.2.1",
                  "code": "10226000",
                  "display": "Prolonged-release tablet"
                }
              ]
            },
            "ingredient": [
              {
                "itemCodeableConcept": {
                  "coding": [
                    {
                      "system": "http://snomed.info/sct",
                      "code": "372826007",
                      "display": "Metoprolol (substance)"
                    }
                  ]
                },
                "strength": {
                  "numerator": {
                    "value": 25,
                    "unit": "mg"
                  },
                  "denominator": {
                    "value": 1
                  }
                }
              }
            ]
          }
        ],
        "status": "completed",
        "medicationReference": {
          "reference": "#cont3"
        },
        "subject": {
          "reference": "Patient/7"
        },
        "informationSource": {
          "reference": "Practitioner/9"
        },
        "reasonCode": [
          {
            "text": "Bluthochdruck/Herz"
          }
        ],
        "dosage": [
          {
            "text": "Morgens und abends je 1 Tablette"
          },
          {
            "timing": {
              "repeat": {
                "boundsPeriod": {
                  "start": "2016-02-10"
                },
                "when": [
                  "PCM",
                  "PCV"
                ]
              }
            },
            "route": {
              "coding": [
                {
                  "system": "urn:oid:0.4.0.127.0.16.1.1.2.1",
                  "code": "20053000",
                  "display": "Oral use"
                }
              ]
            },
            "doseAndRate": [
              {
                "doseQuantity": {
                  "value": 1,
                  "unit": "Stück",
                  "system": "http://unitsofmeasure.org",
                  "code": "1"
                }
              }
            ]
          }
        ]
      }
    },
    {
      "fullUrl": "http://localhost:8080/r4/MedicationStatement/14",
      "resource": {
        "resourceType": "MedicationStatement",
        "id": "14",
        "meta": {
          "versionId": "1",
          "lastUpdated": "2019-05-29T14:58:58.181+02:00",
          "profile": [
            "http://chmed20af.emediplan.ch/fhir/StructureDefinition/chmed20af-card-medicationstatement"
          ]
        },
        "text": {
          "status": "generated",
          "div": "<div xmlns=\"http://www.w3.org/1999/xhtml\">ZOCOR Filmtabl 20 mg 28 Stk - 0-0-1-0 ab 2.10.2016 </div>"
        },
        "contained": [
          {
            "resourceType": "Medication",
            "id": "cont4",
            "code": {
              "coding": [
                {
                  "system": "urn:oid:2.51.1.1",
                  "code": "7680497420456",
                  "display": "ZOCOR Filmtabl 20 mg 28 Stk"
                }
              ],
              "text": "ZOCOR Filmtabl 20 mg 28 Stk"
            },
            "form": {
              "coding": [
                {
                  "system": "urn:oid:0.4.0.127.0.16.1.1.2.1",
                  "code": "10221000",
                  "display": "Film-coated tablet"
                }
              ]
            },
            "ingredient": [
              {
                "itemCodeableConcept": {
                  "coding": [
                    {
                      "system": "http://snomed.info/sct",
                      "code": "387584000",
                      "display": "Simvastatin (substance)"
                    }
                  ]
                },
                "strength": {
                  "numerator": {
                    "value": 20,
                    "unit": "mg"
                  },
                  "denominator": {
                    "value": 1
                  }
                }
              }
            ]
          }
        ],
        "status": "completed",
        "medicationReference": {
          "reference": "#cont4"
        },
        "subject": {
          "reference": "Patient/7"
        },
        "informationSource": {
          "reference": "Practitioner/9"
        },
        "reasonCode": [
          {
            "text": "Cholesterinsenker"
          }
        ],
        "dosage": [
          {
            "text": "1 Tablette abends"
          },
          {
            "timing": {
              "repeat": {
                "boundsPeriod": {
                  "start": "2016-02-10"
                },
                "when": [
                  "PCV"
                ]
              }
            },
            "route": {
              "coding": [
                {
                  "system": "urn:oid:0.4.0.127.0.16.1.1.2.1",
                  "code": "20053000",
                  "display": "Oral use"
                }
              ]
            },
            "doseAndRate": [
              {
                "doseQuantity": {
                  "value": 1,
                  "unit": "Stück",
                  "system": "http://unitsofmeasure.org",
                  "code": "1"
                }
              }
            ]
          }
        ]
      }
    },
    {
      "fullUrl": "http://localhost:8080/r4/MedicationStatement/21",
      "resource": {
        "resourceType": "MedicationStatement",
        "id": "21",
        "meta": {
          "versionId": "1",
          "lastUpdated": "2019-05-29T14:58:58.181+02:00",
          "profile": [
            "http://chmed20af.emediplan.ch/fhir/StructureDefinition/chmed20af-card-medicationstatement"
          ]
        },
        "text": {
          "status": "generated",
          "div": "<div xmlns=\"http://www.w3.org/1999/xhtml\"> MORPHIN HCL Amino Inj Lös 20 mg/ml\t\tPrd-Nr. 28537 \n                  <br/>\nStart\t 08:00 Uhr \n                  <br/>\nEnde\t 12:00 Uhr \n                  <br/>\nDosis jede Stunde 50 ml erhöhen \n                  <br/>\nCHMED16A0 {\t&quot;Patient&quot;: {\t\t&quot;FName&quot;: &quot;Dora&quot;,\t\t&quot;LName&quot;: &quot;Graber&quot;,\t\t&quot;BDt&quot;: &quot;1945-11-23&quot;,\t\t&quot;Gender&quot;: 2,\t\t&quot;Lng&quot;: &quot;de&quot;,\t\t&quot;Med&quot;: {\t\t\t&quot;DLstMen&quot;: &quot;&quot;,\t\t\t&quot;Prem&quot;: 0,\t\t\t&quot;Rc&quot;: [{\t\t\t\t\t&quot;Id&quot;: 4\t\t\t\t}, {\t\t\t\t\t&quot;Id&quot;: 2\t\t\t\t}, {\t\t\t\t\t&quot;Id&quot;: 1\t\t\t\t}, {\t\t\t\t\t&quot;Id&quot;: 3\t\t\t\t}, {\t\t\t\t\t&quot;Id&quot;: 6,\t\t\t\t\t&quot;R&quot;: [571]\t\t\t\t}, {\t\t\t\t\t&quot;Id&quot;: 7,\t\t\t\t\t&quot;R&quot;: [9999]\t\t\t\t}\t\t\t],\t\t\t&quot;Meas&quot;: [{\t\t\t\t\t&quot;Type&quot;: 1,\t\t\t\t\t&quot;Val&quot;: &quot;93&quot;,\t\t\t\t\t&quot;Unit&quot;: 2\t\t\t\t}, {\t\t\t\t\t&quot;Type&quot;: 2,\t\t\t\t\t&quot;Val&quot;: &quot;165&quot;,\t\t\t\t\t&quot;Unit&quot;: 1\t\t\t\t}\t\t\t]\t\t}\t},\t&quot;Medicaments&quot;: [{\t\t\t&quot;Id&quot;: &quot;1176325&quot;,\t\t\t&quot;IdType&quot;: 4,\t\t\t&quot;Pos&quot;: [{\t\t\t\t\t&quot;DtFrom&quot;: &quot;2017-09-05&quot;,\t\t\t\t\t&quot;DtTo&quot;: &quot;2017-09-07&quot;,\t\t\t\t\t&quot;CyDu&quot;: 604800,\t\t\t\t\t&quot;InRes&quot;: 0,\t\t\t\t\t&quot;TT&quot;: [{\t\t\t\t\t\t\t&quot;Off&quot;: 28800,\t\t\t\t\t\t\t&quot;Du&quot;: 14400,\t\t\t\t\t\t\t&quot;DoFrom&quot;: 50.0,\t\t\t\t\t\t\t&quot;DoTo&quot;: 200.0\t\t\t\t\t\t}\t\t\t\t\t]\t\t\t\t}\t\t\t],\t\t\t&quot;Unit&quot;: &quot;ML&quot;,\t\t\t&quot;Rep&quot;: 0,\t\t\t&quot;Subs&quot;: 0,\t\t\t&quot;NbPack&quot;: 1\t\t}\t],\t&quot;PFields&quot;: [],\t&quot;MedType&quot;: 1,\t&quot;Dt&quot;: &quot;2017-09-05T03:21:25+02:00&quot;} \n               </div>"
        },
        "contained": [
          {
            "resourceType": "Medication",
            "id": "cont1",
            "code": {
              "coding": [
                {
                  "system": "urn:oid:2.51.1.1",
                  "code": "7680565130034",
                  "display": "MORPHIN HCL Amino Inj Lös 20 mg/ml"
                }
              ],
              "text": "MORPHIN HCL Amino Inj Lös 20 mg/ml"
            },
            "form": {
              "coding": [
                {
                  "system": "urn:oid:0.4.0.127.0.16.1.1.2.1",
                  "code": "11201000",
                  "display": "Solution for injection"
                }
              ]
            },
            "ingredient": [
              {
                "itemCodeableConcept": {
                  "coding": [
                    {
                      "system": "http://snomed.info/sct",
                      "code": "373529000",
                      "display": "Morphine (substance)"
                    }
                  ]
                },
                "strength": {
                  "numerator": {
                    "value": 20,
                    "unit": "mg"
                  },
                  "denominator": {
                    "value": 1,
                    "unit": "ml"
                  }
                }
              }
            ]
          }
        ],
        "status": "completed",
        "medicationReference": {
          "reference": "#cont1"
        },
        "subject": {
          "reference": "Patient/7"
        },
        "informationSource": {
          "reference": "Practitioner/9"
        },
        "reasonCode": [
          {
            "text": "Blutverdünnung"
          }
        ],
        "dosage": [
          {
            "text": "Dosis jede Stunde 50 ml erhöhen"
          },
          {
            "sequence": 1,
            "timing": {
              "repeat": {
                "count": 1,
                "duration": 14400,
                "durationUnit": "s",
                "timeOfDay": [
                  "08:00:00"
                ]
              }
            },
            "route": {
              "coding": [
                {
                  "system": "urn:oid:0.4.0.127.0.16.1.1.2.1",
                  "code": "20045000",
                  "display": "Intravenous use"
                }
              ]
            },
            "doseAndRate": [
              {
                "doseQuantity": {
                  "extension": [
                    {
                      "url": "http://chmed20af.emediplan.ch/fhir/StructureDefinition/chmed20af-dosequantityto",
                      "valueQuantity": {
                        "value": 200,
                        "unit": "ml",
                        "system": "http://unitsofmeasure.org",
                        "code": "ml"
                      }
                    }
                  ],
                  "value": 50,
                  "unit": "ml",
                  "system": "http://unitsofmeasure.org",
                  "code": "ml"
                }
              }
            ]
          }
        ]
      }
    },
    {
      "fullUrl": "http://localhost:8080/r4/Observation/23",
      "resource": {
        "resourceType": "Observation",
        "id": "23",
        "meta": {
          "versionId": "1",
          "lastUpdated": "2019-05-29T14:58:58.181+02:00",
          "profile": [
            "http://hl7.org/fhir/StructureDefinition/bodyheight"
          ]
        },
        "text": {
          "status": "generated",
          "div": "<div xmlns=\"http://www.w3.org/1999/xhtml\">178 cm </div>"
        },
        "status": "final",
        "category": [
          {
            "coding": [
              {
                "system": "http://terminology.hl7.org/CodeSystem/observation-category",
                "code": "vital-signs",
                "display": "Vital Signs"
              }
            ]
          }
        ],
        "code": {
          "coding": [
            {
              "system": "http://loinc.org",
              "code": "8302-2",
              "display": "Body height"
            },
            {
              "system": "http://snomed.info/sct",
              "code": "50373000",
              "display": "Body height measure"
            }
          ]
        },
        "subject": {
          "reference": "Patient/7"
        },
        "effectiveDateTime": "2016-09-12",
        "valueQuantity": {
          "value": 178,
          "unit": "cm",
          "system": "http://unitsofmeasure.org",
          "code": "cm"
        }
      }
    },
    {
      "fullUrl": "http://localhost:8080/r4/Observation/24",
      "resource": {
        "resourceType": "Observation",
        "id": "24",
        "meta": {
          "versionId": "1",
          "lastUpdated": "2019-05-29T14:58:58.181+02:00",
          "profile": [
            "http://hl7.org/fhir/StructureDefinition/bodyweight"
          ]
        },
        "text": {
          "status": "generated",
          "div": "<div xmlns=\"http://www.w3.org/1999/xhtml\">72 kg </div>"
        },
        "status": "final",
        "category": [
          {
            "coding": [
              {
                "system": "http://terminology.hl7.org/CodeSystem/observation-category",
                "code": "vital-signs",
                "display": "Vital Signs"
              }
            ]
          }
        ],
        "code": {
          "coding": [
            {
              "system": "http://loinc.org",
              "code": "29463-7",
              "display": "Body Weight"
            },
            {
              "system": "http://loinc.org",
              "code": "3141-9",
              "display": "Body weight Measured"
            },
            {
              "system": "http://snomed.info/sct",
              "code": "27113001",
              "display": "Body weight"
            }
          ]
        },
        "subject": {
          "reference": "Patient/7"
        },
        "effectiveDateTime": "2016-09-12",
        "valueQuantity": {
          "value": 72,
          "unit": "kg",
          "system": "http://unitsofmeasure.org",
          "code": "kg"
        }
      }
    },
    {
      "fullUrl": "http://localhost:8080/r4/Observation/25",
      "resource": {
        "resourceType": "Observation",
        "id": "25",
        "meta": {
          "versionId": "1",
          "lastUpdated": "2019-05-29T14:58:58.181+02:00",
          "profile": [
            "http://chmed20af.emediplan.ch/fhir/StructureDefinition/chmed20af-obs-dateoflastmenstruation"
          ]
        },
        "text": {
          "status": "generated",
          "div": "<div xmlns=\"http://www.w3.org/1999/xhtml\">Date last menstruation: 01.09.2016 </div>"
        },
        "status": "final",
        "code": {
          "coding": [
            {
              "system": "http://snomed.info/sct",
              "code": "161713000",
              "display": "Last menstrual period - First day"
            }
          ]
        },
        "subject": {
          "reference": "Patient/7"
        },
        "valueDateTime": "2016-09-01"
      }
    },
    {
      "fullUrl": "http://localhost:8080/r4/Observation/26",
      "resource": {
        "resourceType": "Observation",
        "id": "26",
        "meta": {
          "versionId": "1",
          "lastUpdated": "2019-05-29T14:58:58.181+02:00",
          "profile": [
            "http://chmed20af.emediplan.ch/fhir/StructureDefinition/chmed20af-obs-prematurebaby"
          ]
        },
        "text": {
          "status": "generated",
          "div": "<div xmlns=\"http://www.w3.org/1999/xhtml\">Premature baby: true </div>"
        },
        "status": "final",
        "code": {
          "coding": [
            {
              "system": "http://snomed.info/sct",
              "code": "395507008",
              "display": "Premature infant"
            }
          ]
        },
        "subject": {
          "reference": "Patient/7"
        },
        "valueBoolean": true
      }
    },
    {
      "fullUrl": "http://localhost:8080/r4/Observation/27",
      "resource": {
        "resourceType": "Observation",
        "id": "27",
        "meta": {
          "versionId": "1",
          "lastUpdated": "2019-05-29T14:58:58.181+02:00",
          "profile": [
            "http://chmed20af.emediplan.ch/fhir/StructureDefinition/chmed20af-obs-timeofgestation"
          ]
        },
        "text": {
          "status": "generated",
          "div": "<div xmlns=\"http://www.w3.org/1999/xhtml\">Time of gestation: week 30, days 5 </div>"
        },
        "status": "final",
        "code": {
          "coding": [
            {
              "system": "http://snomed.info/sct",
              "code": "445872007",
              "display": "Length of gestation at time of procedure"
            }
          ]
        },
        "subject": {
          "reference": "Patient/7"
        },
        "component": [
          {
            "code": {
              "coding": [
                {
                  "system": "http://loinc.org",
                  "code": "49051-6",
                  "display": "Gestational age in weeks"
                }
              ]
            },
            "valueQuantity": {
              "value": 30,
              "unit": "wk",
              "system": "http://unitsofmeasure.org",
              "code": "wk"
            }
          },
          {
            "code": {
              "coding": [
                {
                  "system": "http://loinc.org",
                  "code": "49052-4",
                  "display": "Gestational age in days"
                }
              ]
            },
            "valueQuantity": {
              "value": 5,
              "unit": "d",
              "system": "http://unitsofmeasure.org",
              "code": "d"
            }
          }
        ]
      }
    },
    {
      "fullUrl": "http://localhost:8080/r4/Condition/28",
      "resource": {
        "resourceType": "Condition",
        "id": "28",
        "meta": {
          "versionId": "1",
          "lastUpdated": "2019-05-29T14:58:58.181+02:00",
          "profile": [
            "http://chmed20af.emediplan.ch/fhir/StructureDefinition/chmed20af-condition-risks"
          ]
        },
        "text": {
          "status": "generated",
          "div": "<div xmlns=\"http://www.w3.org/1999/xhtml\">Renal Insufficiency - Niereninsuffizienz, leichte (Clcr 60–90 ml/min)</div>"
        },
        "clinicalStatus": {
          "coding": [
            {
              "system": "http://terminology.hl7.org/CodeSystem/condition-clinical",
              "code": "active"
            }
          ]
        },
        "category": [
          {
            "coding": [
              {
                "system": "http://chmed20af.emediplan.ch/fhir/CodeSystem/chmed20af-codesystem-risks-category",
                "code": "1",
                "display": "Renal Insufficiency"
              }
            ]
          }
        ],
        "code": {
          "coding": [
            {
              "system": "http://chmed20af.emediplan.ch/fhir/CodeSystem/chmed20af-codesystem-risks-cdscode",
              "code": "577",
              "display": "Niereninsuffizienz, leichte (Clcr 60–90 ml/min)"
            }
          ]
        },
        "subject": {
          "reference": "Patient/7"
        }
      }
    },
    {
      "fullUrl": "http://localhost:8080/r4/Condition/29",
      "resource": {
        "resourceType": "Condition",
        "id": "29",
        "meta": {
          "versionId": "1",
          "lastUpdated": "2019-05-29T14:58:58.181+02:00",
          "profile": [
            "http://chmed20af.emediplan.ch/fhir/StructureDefinition/chmed20af-condition-risks"
          ]
        },
        "text": {
          "status": "generated",
          "div": "<div xmlns=\"http://www.w3.org/1999/xhtml\">Liver Insufficiency - excluded </div>"
        },
        "clinicalStatus": {
          "coding": [
            {
              "system": "http://terminology.hl7.org/CodeSystem/condition-clinical",
              "code": "active"
            }
          ]
        },
        "category": [
          {
            "coding": [
              {
                "system": "http://chmed20af.emediplan.ch/fhir/CodeSystem/chmed20af-codesystem-risks-category",
                "code": "2",
                "display": "Liver Insufficiency"
              }
            ]
          }
        ],
        "subject": {
          "reference": "Patient/7"
        }
      }
    },
    {
      "fullUrl": "http://localhost:8080/r4/Condition/30",
      "resource": {
        "resourceType": "Condition",
        "id": "30",
        "meta": {
          "versionId": "1",
          "lastUpdated": "2019-05-29T14:58:58.181+02:00",
          "profile": [
            "http://chmed20af.emediplan.ch/fhir/StructureDefinition/chmed20af-condition-risks"
          ]
        },
        "text": {
          "status": "generated",
          "div": "<div xmlns=\"http://www.w3.org/1999/xhtml\">Reproduction - Frauen im gebärfähigen Alter</div>"
        },
        "clinicalStatus": {
          "coding": [
            {
              "system": "http://terminology.hl7.org/CodeSystem/condition-clinical",
              "code": "active"
            }
          ]
        },
        "category": [
          {
            "coding": [
              {
                "system": "http://chmed20af.emediplan.ch/fhir/CodeSystem/chmed20af-codesystem-risks-category",
                "code": "3",
                "display": "Reproduction"
              }
            ]
          }
        ],
        "code": {
          "coding": [
            {
              "system": "http://chmed20af.emediplan.ch/fhir/CodeSystem/chmed20af-codesystem-risks-cdscode",
              "code": "612",
              "display": "Frauen im gebärfähigen Alter"
            }
          ]
        },
        "subject": {
          "reference": "Patient/7"
        }
      }
    },
    {
      "fullUrl": "http://localhost:8080/r4/Condition/31",
      "resource": {
        "resourceType": "Condition",
        "id": "31",
        "meta": {
          "versionId": "1",
          "lastUpdated": "2019-05-29T14:58:58.181+02:00",
          "profile": [
            "http://chmed20af.emediplan.ch/fhir/StructureDefinition/chmed20af-condition-risks"
          ]
        },
        "text": {
          "status": "generated",
          "div": "<div xmlns=\"http://www.w3.org/1999/xhtml\">Competitive athlete - Excluded</div>"
        },
        "clinicalStatus": {
          "coding": [
            {
              "system": "http://terminology.hl7.org/CodeSystem/condition-clinical",
              "code": "active"
            }
          ]
        },
        "category": [
          {
            "coding": [
              {
                "system": "http://chmed20af.emediplan.ch/fhir/CodeSystem/chmed20af-codesystem-risks-category",
                "code": "4",
                "display": "Competitive athlete"
              }
            ]
          }
        ],
        "subject": {
          "reference": "Patient/7"
        }
      }
    }
  ]
}