{
  "resourceType": "Bundle",
  "id": "A5-ConsolidatedMedicationCard",
  "meta": {
    "profile": [
      "http://chmed20af.emediplan.ch/fhir/StructureDefinition/chmed20af-analyzer-bundle"
    ]
  },
  "identifier": {
    "system": "http://emediplan.ch/chmed20af/id",
    "value": "26d3dff7-ab05-4737-a49c-5eccd33511a5"
  },
  "type": "document",
  "timestamp": "2020-03-23T17:00:00+01:00",
  "entry": [
    {
      "fullUrl": "http://test.fhir.ch/r4/Composition/A5-Analyzer",
      "resource": {
        "resourceType": "Composition",
        "id": "A5-Analyzer",
        "meta": {
          "profile": [
            "http://chmed20af.emediplan.ch/fhir/StructureDefinition/chmed20af-analyzer-composition"
          ]
        },
        "text": {
          "status": "generated",
          "div": "<div xmlns=\"http://www.w3.org/1999/xhtml\"><p><b>Generated Narrative with Details</b></p><p><b>id</b>: A5-Analyzer</p><p><b>meta</b>: </p><p><b>status</b>: final</p><p><b>type</b>: Medication summary document (record artifact) <span style=\"background: LightGoldenRodYellow\">(Details : {SNOMED CT code '721912009' = 'Medication summary document (record artifact)', given as 'Medication summary document (record artifact)'})</span></p><p><b>date</b>: Mar 23, 2020, 5:00:00 PM</p><p><b>author</b>: <a href=\"#backboneelement_Analyzer\">Generated Summary: unknown resource entry</a></p><p><b>title</b>: Medikationsplan</p></div>"
        },
        "status": "final",
        "type": {
          "coding": [
            {
              "system": "http://snomed.info/sct",
              "code": "721912009",
              "display": "Medication summary document (record artifact)"
            }
          ]
        },
        "subject": {
          "reference": "Patient/MonikaWegmueller"
        },
        "date": "2020-03-23T17:00:00+01:00",
        "author": [
          {
            "reference": "Device/Analyzer"
          }
        ],
        "title": "Medikationsplan",
        "section": [
          {
            "entry": [
              {
                "reference": "MedicationStatement/A5-MedStatExforge-Analyzer"
              }
            ]
          }
        ]
      }
    },
    {
      "fullUrl": "http://test.fhir.ch/r4/Patient/MonikaWegmueller",
      "resource": {
        "resourceType": "Patient",
        "id": "MonikaWegmueller",
        "meta": {
          "profile": [
            "http://chmed20af.emediplan.ch/fhir/StructureDefinition/chmed20af-analyzer-patient"
          ]
        },
        "text": {
          "status": "generated",
          "div": "<div xmlns=\"http://www.w3.org/1999/xhtml\"><p><b>Generated Narrative with Details</b></p><p><b>id</b>: MonikaWegmueller</p><p><b>meta</b>: </p><p><b>identifier</b>: Medical record number = 11111111</p><p><b>name</b>: Monika Wegmüller </p><p><b>gender</b>: female</p><p><b>birthDate</b>: 1943-05-15</p><p><b>address</b>: Wiesenstr. 12 Zürich 8003 CH </p></div>"
        },
        "identifier": [
          {
            "type": {
              "coding": [
                {
                  "system": "http://terminology.hl7.org/CodeSystem/v2-0203",
                  "code": "MR"
                }
              ]
            },
            "system": "urn:oid:2.999",
            "value": "11111111"
          }
        ],
        "name": [
          {
            "family": "Wegmüller",
            "given": [
              "Monika"
            ]
          }
        ],
        "gender": "female",
        "birthDate": "1943-05-15",
        "address": [
          {
            "line": [
              "Wiesenstr. 12"
            ],
            "city": "Zürich",
            "postalCode": "8003",
            "country": "CH"
          }
        ]
      }
    },
    {
      "fullUrl": "http://test.fhir.ch/r4/Practitioner/SpezialistMonney",
      "resource": {
        "resourceType": "Practitioner",
        "id": "SpezialistMonney",
        "meta": {
          "profile": [
            "http://chmed20af.emediplan.ch/fhir/StructureDefinition/chmed20af-analyzer-practitioner"
          ]
        },
        "text": {
          "status": "generated",
          "div": "<div xmlns=\"http://www.w3.org/1999/xhtml\"><p><b>Generated Narrative with Details</b></p><p><b>id</b>: SpezialistMonney</p><p><b>meta</b>: </p><p><b>identifier</b>: 7601000239933</p><p><b>name</b>: Spezialist Monney </p></div>"
        },
        "identifier": [
          {
            "system": "urn:oid:2.51.1.3",
            "value": "7601000239933"
          }
        ],
        "name": [
          {
            "family": "Monney",
            "given": [
              "Spezialist"
            ]
          }
        ]
      }
    },
    {
      "fullUrl": "http://test.fhir.ch/r4/Device/Analyzer",
      "resource": {
        "resourceType": "Device",
        "id": "Analyzer",
        "meta": {
          "profile": [
            "http://hl7.org/fhir/StructureDefinition/Device"
          ]
        },
        "text": {
          "status": "generated",
          "div": "<div xmlns=\"http://www.w3.org/1999/xhtml\"><p><b>Generated Narrative with Details</b></p><p><b>id</b>: Analyzer</p><p><b>meta</b>: </p><h3>DeviceNames</h3><table class=\"grid\"><tr><td>-</td><td><b>Name</b></td><td><b>Type</b></td></tr><tr><td>*</td><td>Analyzer</td><td>user-friendly-name</td></tr></table><h3>Versions</h3><table class=\"grid\"><tr><td>-</td><td><b>Value</b></td></tr><tr><td>*</td><td>V1</td></tr></table></div>"
        },
        "deviceName": [
          {
            "name": "Analyzer",
            "type": "user-friendly-name"
          }
        ],
        "version": [
          {
            "value": "V1"
          }
        ]
      }
    },
    {
      "fullUrl": "http://test.fhir.ch/r4/MedicationStatement/A5-MedStatExforge-Analyzer",
      "resource": {
        "resourceType": "MedicationStatement",
        "id": "A5-MedStatExforge-Analyzer",
        "meta": {
          "profile": [
            "http://chmed20af.emediplan.ch/fhir/StructureDefinition/chmed20af-analyzer-medicationstatement"
          ]
        },
        "text": {
          "status": "generated",
          "div": "<div xmlns=\"http://www.w3.org/1999/xhtml\"><p><b>Generated Narrative with Details</b></p><p><b>id</b>: A5-MedStatExforge-Analyzer</p><p><b>meta</b>: </p><p><b>contained</b>: </p><p><b>status</b>: completed</p><p><b>category</b>: Kardiovaskuläres System <span style=\"background: LightGoldenRodYellow\">(Details : {http://www.whocc.no/atc code 'C' = 'C', given as 'Kardiovaskuläres System'})</span></p><p><b>medication</b>: unknown resource contained</p><p><b>subject</b>: <a href=\"#backboneelement_MonikaWegmueller\">Generated Summary: unknown resource entry</a></p><p><b>informationSource</b>: <a href=\"#backboneelement_SpezialistMonney\">Generated Summary: unknown resource entry</a></p><p><b>derivedFrom</b>: </p><ul><li><a href=\"#backboneelement_A5-MedStatReniten\">Generated Summary: unknown resource entry</a></li><li><a href=\"#backboneelement_A5-History-ChangeTherapy\">Generated Summary: unknown resource entry</a></li><li><a href=\"#backboneelement_A5-MedStatExforge\">Generated Summary: unknown resource entry</a></li></ul><p><b>dosage</b>: , </p></div>"
        },
        "contained": [
          {
            "resourceType": "Medication",
            "id": "cont1",
            "code": {
              "coding": [
                {
                  "system": "urn:oid:2.51.1.1",
                  "code": "7680577710149",
                  "display": "Exforge 10/160mg"
                }
              ],
              "text": "Exforge 10/160mg"
            },
            "form": {
              "coding": [
                {
                  "system": "urn:oid:0.4.0.127.0.16.1.1.2.1",
                  "code": "10219000",
                  "display": "Tablet"
                }
              ]
            },
            "amount": {
              "numerator": {
                "value": 28
              },
              "denominator": {
                "value": 1
              }
            },
            "ingredient": [
              {
                "itemCodeableConcept": {
                  "coding": [
                    {
                      "system": "http://snomed.info/sct",
                      "code": "386864001",
                      "display": "Amlodipine (substance)"
                    }
                  ]
                },
                "strength": {
                  "numerator": {
                    "value": 10,
                    "unit": "mg"
                  },
                  "denominator": {
                    "value": 1
                  }
                }
              },
              {
                "itemCodeableConcept": {
                  "coding": [
                    {
                      "system": "http://snomed.info/sct",
                      "code": "386876001",
                      "display": "Valsartan (substance)"
                    }
                  ]
                },
                "strength": {
                  "numerator": {
                    "value": 170,
                    "unit": "mg"
                  },
                  "denominator": {
                    "value": 1
                  }
                }
              }
            ]
          }
        ],
        "status": "completed",
        "category": {
          "coding": [
            {
              "system": "http://www.whocc.no/atc",
              "code": "C",
              "display": "Kardiovaskuläres System"
            }
          ]
        },
        "medicationReference": {
          "reference": "#cont1"
        },
        "subject": {
          "reference": "Patient/MonikaWegmueller"
        },
        "informationSource": {
          "reference": "Practitioner/SpezialistMonney"
        },
        "derivedFrom": [
          {
            "reference": "MedicationStatement/A5-MedStatReniten"
          },
          {
            "reference": "Observation/A5-History-ChangeTherapy"
          },
          {
            "reference": "MedicationStatement/A5-MedStatExforge"
          }
        ],
        "dosage": [
          {
            "text": "1 Tablette morgens"
          },
          {
            "timing": {
              "repeat": {
                "boundsPeriod": {
                  "start": "2020-03-23"
                },
                "when": [
                  "CM"
                ]
              }
            },
            "route": {
              "coding": [
                {
                  "system": "urn:oid:0.4.0.127.0.16.1.1.2.1",
                  "code": "20053000",
                  "display": "Oral use"
                }
              ]
            },
            "doseAndRate": [
              {
                "doseQuantity": {
                  "value": 1,
                  "unit": "Tablette",
                  "system": "http://unitsofmeasure.org",
                  "code": "1"
                }
              }
            ]
          }
        ]
      }
    },
    {
      "fullUrl": "http://test.fhir.ch/r4/MedicationStatement/A5-MedStatReniten",
      "resource": {
        "resourceType": "MedicationStatement",
        "id": "A5-MedStatReniten",
        "meta": {
          "profile": [
            "http://chmed20af.emediplan.ch/fhir/StructureDefinition/chmed20af-analyzer-medicationstatement"
          ]
        },
        "text": {
          "status": "generated",
          "div": "<div xmlns=\"http://www.w3.org/1999/xhtml\"><p><b>Generated Narrative with Details</b></p><p><b>id</b>: A5-MedStatReniten</p><p><b>meta</b>: </p><p><b>contained</b>: </p><p><b>status</b>: completed</p><p><b>category</b>: Kardiovaskuläres System <span style=\"background: LightGoldenRodYellow\">(Details : {http://www.whocc.no/atc code 'C' = 'C', given as 'Kardiovaskuläres System'})</span></p><p><b>medication</b>: unknown resource contained</p><p><b>subject</b>: <a href=\"#backboneelement_MonikaWegmueller\">Generated Summary: unknown resource entry</a></p><p><b>informationSource</b>: <a href=\"#backboneelement_SpezialistMonney\">Generated Summary: unknown resource entry</a></p><p><b>reasonCode</b>: Bluthochdruck <span style=\"background: LightGoldenRodYellow\">(Details )</span></p><p><b>dosage</b>: , </p></div>"
        },
        "contained": [
          {
            "resourceType": "Medication",
            "id": "cont1",
            "code": {
              "coding": [
                {
                  "system": "urn:oid:2.51.1.1",
                  "code": "7680460380299",
                  "display": "RENITEN Tabl 20 mg"
                }
              ],
              "text": "RENITEN Tabl 20 mg"
            },
            "form": {
              "coding": [
                {
                  "system": "urn:oid:0.4.0.127.0.16.1.1.2.1",
                  "code": "10219000",
                  "display": "Tablet"
                }
              ]
            },
            "amount": {
              "numerator": {
                "value": 98
              },
              "denominator": {
                "value": 1
              }
            },
            "ingredient": [
              {
                "itemCodeableConcept": {
                  "coding": [
                    {
                      "system": "http://snomed.info/sct",
                      "code": "387165009",
                      "display": "Enalapril maleate (substance)"
                    }
                  ]
                },
                "strength": {
                  "numerator": {
                    "value": 20,
                    "unit": "mg"
                  },
                  "denominator": {
                    "value": 1
                  }
                }
              }
            ]
          }
        ],
        "extension": [
          {
            "url": "http://chmed20af.emediplan.ch/fhir/StructureDefinition/chmed20af-infoinputdocument",
            "extension": [
              {
                "url": "http://chmed20af.emediplan.ch/fhir/StructureDefinition/chmed20af-inputdocumentsource",
                "valueString": "Cara"
              },
              {
                "url": "http://chmed20af.emediplan.ch/fhir/StructureDefinition/chmed20af-inputdocumenttype",
                "valueCodeableConcept": {
                  "coding": [
                    {
                      "system": "http://loinc.org",
                      "code": "56445-0",
                      "display": "Medication summary"
                    }
                  ]
                }
              },
              {
                "url": "http://chmed20af.emediplan.ch/fhir/StructureDefinition/chmed20af-inputdocumentdate",
                "valueDateTime": "2020-03-10T11:00:00+01:00"
              }
            ]
          }
        ],
        "status": "completed",
        "category": {
          "coding": [
            {
              "system": "http://www.whocc.no/atc",
              "code": "C",
              "display": "Kardiovaskuläres System"
            }
          ]
        },
        "medicationReference": {
          "reference": "#cont1"
        },
        "subject": {
          "reference": "Patient/MonikaWegmueller"
        },
        "informationSource": {
          "reference": "Practitioner/SpezialistMonney"
        },
        "reasonCode": [
          {
            "text": "Bluthochdruck"
          }
        ],
        "dosage": [
          {
            "text": "1 Tablette morgens"
          },
          {
            "timing": {
              "repeat": {
                "boundsPeriod": {
                  "start": "2020-03-10",
                  "end": "2020-03-23"
                },
                "when": [
                  "CM"
                ]
              }
            },
            "route": {
              "coding": [
                {
                  "system": "urn:oid:0.4.0.127.0.16.1.1.2.1",
                  "code": "20053000",
                  "display": "Oral use"
                }
              ]
            },
            "doseAndRate": [
              {
                "doseQuantity": {
                  "value": 1,
                  "unit": "Tablette",
                  "system": "http://unitsofmeasure.org",
                  "code": "1"
                }
              }
            ]
          }
        ]
      }
    },
    {
      "fullUrl": "http://test.fhir.ch/r4/Observation/A5-History-ChangeTherapy",
      "resource": {
        "resourceType": "Observation",
        "id": "A5-History-ChangeTherapy",
        "meta": {
          "profile": [
            "http://chmed20af.emediplan.ch/fhir/StructureDefinition/chmed20af-analyzer-observationhistory"
          ]
        },
        "text": {
          "status": "generated",
          "div": "<div xmlns=\"http://www.w3.org/1999/xhtml\"><p><b>Generated Narrative with Details</b></p><p><b>id</b>: A5-History-ChangeTherapy</p><p><b>meta</b>: </p><p><b>status</b>: final</p><p><b>code</b>: CHANGE <span style=\"background: LightGoldenRodYellow\">(Details : {urn:oid:1.3.6.1.4.1.19376.1.9.2.1 code 'CHANGE' = 'CHANGE)</span></p><p><b>value</b>: changeTherapy <span style=\"background: LightGoldenRodYellow\">(Details : {http://chmed20af.emediplan.ch/fhir/CodeSystem/chmed20af-codesystem-history-changes code 'changeTherapy' = 'changeTherapy)</span></p></div>"
        },
        "status": "final",
        "code": {
          "coding": [
            {
              "system": "urn:oid:1.3.6.1.4.1.19376.1.9.2.1",
              "code": "CHANGE"
            }
          ]
        },
        "valueCodeableConcept": {
          "coding": [
            {
              "system": "http://chmed20af.emediplan.ch/fhir/CodeSystem/chmed20af-codesystem-history-changes",
              "code": "changeTherapy"
            }
          ]
        }
      }
    },
    {
      "fullUrl": "http://test.fhir.ch/r4/MedicationStatement/A5-MedStatExforge",
      "resource": {
        "resourceType": "MedicationStatement",
        "id": "A5-MedStatExforge",
        "meta": {
          "profile": [
            "http://chmed20af.emediplan.ch/fhir/StructureDefinition/chmed20af-analyzer-medicationstatement"
          ]
        },
        "text": {
          "status": "generated",
          "div": "<div xmlns=\"http://www.w3.org/1999/xhtml\"><p><b>Generated Narrative with Details</b></p><p><b>id</b>: A5-MedStatExforge</p><p><b>meta</b>: </p><p><b>contained</b>: </p><p><b>status</b>: completed</p><p><b>category</b>: Kardiovaskuläres System <span style=\"background: LightGoldenRodYellow\">(Details : {http://www.whocc.no/atc code 'C' = 'C', given as 'Kardiovaskuläres System'})</span></p><p><b>medication</b>: unknown resource contained</p><p><b>subject</b>: <a href=\"#backboneelement_MonikaWegmueller\">Generated Summary: unknown resource entry</a></p><p><b>informationSource</b>: <a href=\"#backboneelement_SpezialistMonney\">Generated Summary: unknown resource entry</a></p><p><b>reasonCode</b>: Bluthochdruck <span style=\"background: LightGoldenRodYellow\">(Details )</span></p><p><b>dosage</b>: , </p></div>"
        },
        "contained": [
          {
            "resourceType": "Medication",
            "id": "cont1",
            "code": {
              "coding": [
                {
                  "system": "urn:oid:2.51.1.1",
                  "code": "7680577710149",
                  "display": "Exforge 10/160mg"
                }
              ],
              "text": "Exforge 10/160mg"
            },
            "form": {
              "coding": [
                {
                  "system": "urn:oid:0.4.0.127.0.16.1.1.2.1",
                  "code": "10219000",
                  "display": "Tablet"
                }
              ]
            },
            "amount": {
              "numerator": {
                "value": 28
              },
              "denominator": {
                "value": 1
              }
            },
            "ingredient": [
              {
                "itemCodeableConcept": {
                  "coding": [
                    {
                      "system": "http://snomed.info/sct",
                      "code": "386864001",
                      "display": "Amlodipine (substance)"
                    }
                  ]
                },
                "strength": {
                  "numerator": {
                    "value": 10,
                    "unit": "mg"
                  },
                  "denominator": {
                    "value": 1
                  }
                }
              },
              {
                "itemCodeableConcept": {
                  "coding": [
                    {
                      "system": "http://snomed.info/sct",
                      "code": "386876001",
                      "display": "Valsartan (substance)"
                    }
                  ]
                },
                "strength": {
                  "numerator": {
                    "value": 170,
                    "unit": "mg"
                  },
                  "denominator": {
                    "value": 1
                  }
                }
              }
            ]
          }
        ],
        "extension": [
          {
            "url": "http://chmed20af.emediplan.ch/fhir/StructureDefinition/chmed20af-infoinputdocument",
            "extension": [
              {
                "url": "http://chmed20af.emediplan.ch/fhir/StructureDefinition/chmed20af-inputdocumentsource",
                "valueString": "Cara"
              },
              {
                "url": "http://chmed20af.emediplan.ch/fhir/StructureDefinition/chmed20af-inputdocumenttype",
                "valueCodeableConcept": {
                  "coding": [
                    {
                      "system": "http://loinc.org",
                      "code": "56445-0",
                      "display": "Medication summary"
                    }
                  ]
                }
              },
              {
                "url": "http://chmed20af.emediplan.ch/fhir/StructureDefinition/chmed20af-inputdocumentdate",
                "valueDateTime": "2020-03-23T15:00:00+01:00"
              }
            ]
          }
        ],
        "status": "completed",
        "category": {
          "coding": [
            {
              "system": "http://www.whocc.no/atc",
              "code": "C",
              "display": "Kardiovaskuläres System"
            }
          ]
        },
        "medicationReference": {
          "reference": "#cont1"
        },
        "subject": {
          "reference": "Patient/MonikaWegmueller"
        },
        "informationSource": {
          "reference": "Practitioner/SpezialistMonney"
        },
        "reasonCode": [
          {
            "text": "Bluthochdruck"
          }
        ],
        "dosage": [
          {
            "text": "1 Tablette morgens"
          },
          {
            "timing": {
              "repeat": {
                "boundsPeriod": {
                  "start": "2020-03-23"
                },
                "when": [
                  "CM"
                ]
              }
            },
            "route": {
              "coding": [
                {
                  "system": "urn:oid:0.4.0.127.0.16.1.1.2.1",
                  "code": "20053000",
                  "display": "Oral use"
                }
              ]
            },
            "doseAndRate": [
              {
                "doseQuantity": {
                  "value": 1,
                  "unit": "Tablette",
                  "system": "http://unitsofmeasure.org",
                  "code": "1"
                }
              }
            ]
          }
        ]
      }
    }
  ]
}