{
  "resourceType": "Bundle",
  "id": "A6-ConsolidatedMedicationCard",
  "meta": {
    "profile": [
      "http://chmed20af.emediplan.ch/fhir/StructureDefinition/chmed20af-analyzer-bundle"
    ]
  },
  "identifier": {
    "system": "http://emediplan.ch/chmed20af/id",
    "value": "26d3dff7-ab05-4737-a49c-5eccd33511a6"
  },
  "type": "document",
  "timestamp": "2020-03-01T13:00:00+01:00",
  "entry": [
    {
      "fullUrl": "http://test.fhir.ch/r4/Composition/A6-Analyzer",
      "resource": {
        "resourceType": "Composition",
        "id": "A6-Analyzer",
        "meta": {
          "profile": [
            "http://chmed20af.emediplan.ch/fhir/StructureDefinition/chmed20af-analyzer-composition"
          ]
        },
        "text": {
          "status": "generated",
          "div": "<div xmlns=\"http://www.w3.org/1999/xhtml\"><p><b>Generated Narrative with Details</b></p><p><b>id</b>: A6-Analyzer</p><p><b>meta</b>: </p><p><b>status</b>: final</p><p><b>type</b>: Medication summary document (record artifact) <span style=\"background: LightGoldenRodYellow\">(Details : {SNOMED CT code '721912009' = 'Medication summary document (record artifact)', given as 'Medication summary document (record artifact)'})</span></p><p><b>date</b>: Mar 1, 2020, 1:00:00 PM</p><p><b>author</b>: <a href=\"#backboneelement_Analyzer\">Generated Summary: unknown resource entry</a></p><p><b>title</b>: Medikationsplan</p></div>"
        },
        "status": "final",
        "type": {
          "coding": [
            {
              "system": "http://snomed.info/sct",
              "code": "721912009",
              "display": "Medication summary document (record artifact)"
            }
          ]
        },
        "subject": {
          "reference": "Patient/MonikaWegmueller"
        },
        "date": "2020-03-01T13:00:00+01:00",
        "author": [
          {
            "reference": "Device/Analyzer"
          }
        ],
        "title": "Medikationsplan",
        "section": [
          {
            "entry": [
              {
                "reference": "MedicationStatement/A6-MedStatImigran-Tbl-Analyzer"
              },
              {
                "reference": "MedicationStatement/A6-MedStatImigran-Spray-Analyzer"
              }
            ]
          }
        ]
      }
    },
    {
      "fullUrl": "http://test.fhir.ch/r4/Patient/MonikaWegmueller",
      "resource": {
        "resourceType": "Patient",
        "id": "MonikaWegmueller",
        "meta": {
          "profile": [
            "http://chmed20af.emediplan.ch/fhir/StructureDefinition/chmed20af-analyzer-patient"
          ]
        },
        "text": {
          "status": "generated",
          "div": "<div xmlns=\"http://www.w3.org/1999/xhtml\"><p><b>Generated Narrative with Details</b></p><p><b>id</b>: MonikaWegmueller</p><p><b>meta</b>: </p><p><b>identifier</b>: Medical record number = 11111111</p><p><b>name</b>: Monika Wegmüller </p><p><b>gender</b>: female</p><p><b>birthDate</b>: 1943-05-15</p><p><b>address</b>: Wiesenstr. 12 Zürich 8003 CH </p></div>"
        },
        "identifier": [
          {
            "type": {
              "coding": [
                {
                  "system": "http://terminology.hl7.org/CodeSystem/v2-0203",
                  "code": "MR"
                }
              ]
            },
            "system": "urn:oid:2.999",
            "value": "11111111"
          }
        ],
        "name": [
          {
            "family": "Wegmüller",
            "given": [
              "Monika"
            ]
          }
        ],
        "gender": "female",
        "birthDate": "1943-05-15",
        "address": [
          {
            "line": [
              "Wiesenstr. 12"
            ],
            "city": "Zürich",
            "postalCode": "8003",
            "country": "CH"
          }
        ]
      }
    },
    {
      "fullUrl": "http://test.fhir.ch/r4/Practitioner/SpezialistMetzler",
      "resource": {
        "resourceType": "Practitioner",
        "id": "SpezialistMetzler",
        "meta": {
          "profile": [
            "http://chmed20af.emediplan.ch/fhir/StructureDefinition/chmed20af-analyzer-practitioner"
          ]
        },
        "text": {
          "status": "generated",
          "div": "<div xmlns=\"http://www.w3.org/1999/xhtml\"><p><b>Generated Narrative with Details</b></p><p><b>id</b>: SpezialistMetzler</p><p><b>meta</b>: </p><p><b>identifier</b>: 7601000232255</p><p><b>name</b>: Spezialist Metzler </p></div>"
        },
        "identifier": [
          {
            "system": "urn:oid:2.51.1.3",
            "value": "7601000232255"
          }
        ],
        "name": [
          {
            "family": "Metzler",
            "given": [
              "Spezialist"
            ]
          }
        ]
      }
    },
    {
      "fullUrl": "http://test.fhir.ch/r4/Device/Analyzer",
      "resource": {
        "resourceType": "Device",
        "id": "Analyzer",
        "meta": {
          "profile": [
            "http://hl7.org/fhir/StructureDefinition/Device"
          ]
        },
        "text": {
          "status": "generated",
          "div": "<div xmlns=\"http://www.w3.org/1999/xhtml\"><p><b>Generated Narrative with Details</b></p><p><b>id</b>: Analyzer</p><p><b>meta</b>: </p><h3>DeviceNames</h3><table class=\"grid\"><tr><td>-</td><td><b>Name</b></td><td><b>Type</b></td></tr><tr><td>*</td><td>Analyzer</td><td>user-friendly-name</td></tr></table><h3>Versions</h3><table class=\"grid\"><tr><td>-</td><td><b>Value</b></td></tr><tr><td>*</td><td>V1</td></tr></table></div>"
        },
        "deviceName": [
          {
            "name": "Analyzer",
            "type": "user-friendly-name"
          }
        ],
        "version": [
          {
            "value": "V1"
          }
        ]
      }
    },
    {
      "fullUrl": "http://test.fhir.ch/r4/MedicationStatement/A6-MedStatImigran-Tbl-Analyzer",
      "resource": {
        "resourceType": "MedicationStatement",
        "id": "A6-MedStatImigran-Tbl-Analyzer",
        "meta": {
          "profile": [
            "http://chmed20af.emediplan.ch/fhir/StructureDefinition/chmed20af-analyzer-medicationstatement"
          ]
        },
        "text": {
          "status": "generated",
          "div": "<div xmlns=\"http://www.w3.org/1999/xhtml\"><p><b>Generated Narrative with Details</b></p><p><b>id</b>: A6-MedStatImigran-Tbl-Analyzer</p><p><b>meta</b>: </p><p><b>contained</b>: </p><p><b>status</b>: completed</p><p><b>category</b>: Nervensystem <span style=\"background: LightGoldenRodYellow\">(Details : {http://www.whocc.no/atc code 'N' = 'N', given as 'Nervensystem'})</span></p><p><b>medication</b>: unknown resource contained</p><p><b>subject</b>: <a href=\"#backboneelement_MonikaWegmueller\">Generated Summary: unknown resource entry</a></p><p><b>informationSource</b>: <a href=\"#backboneelement_SpezialistMetzler\">Generated Summary: unknown resource entry</a></p><p><b>derivedFrom</b>: <a href=\"#backboneelement_A6-MedStatImigran-Tbl\">Generated Summary: unknown resource entry</a></p><p><b>dosage</b>: , </p></div>"
        },
        "contained": [
          {
            "resourceType": "Medication",
            "id": "cont1",
            "code": {
              "coding": [
                {
                  "system": "urn:oid:2.51.1.1",
                  "code": "7680516850592",
                  "display": "IMIGRAN 50 mg Filmtabl"
                }
              ],
              "text": "IMIGRAN 50 mg Filmtabl"
            },
            "form": {
              "coding": [
                {
                  "system": "urn:oid:0.4.0.127.0.16.1.1.2.1",
                  "code": "10221000",
                  "display": "Film-coated tablet"
                }
              ]
            },
            "amount": {
              "numerator": {
                "value": 12
              },
              "denominator": {
                "value": 1
              }
            },
            "ingredient": [
              {
                "itemCodeableConcept": {
                  "coding": [
                    {
                      "system": "http://snomed.info/sct",
                      "code": "395892000",
                      "display": "Sumatriptan (substance)"
                    }
                  ]
                },
                "strength": {
                  "numerator": {
                    "value": 50,
                    "unit": "mg"
                  },
                  "denominator": {
                    "value": 1
                  }
                }
              }
            ]
          }
        ],
        "status": "completed",
        "category": {
          "coding": [
            {
              "system": "http://www.whocc.no/atc",
              "code": "N",
              "display": "Nervensystem"
            }
          ]
        },
        "medicationReference": {
          "reference": "#cont1"
        },
        "subject": {
          "reference": "Patient/MonikaWegmueller"
        },
        "informationSource": {
          "reference": "Practitioner/SpezialistMetzler"
        },
        "derivedFrom": [
          {
            "reference": "MedicationStatement/A6-MedStatImigran-Tbl"
          }
        ],
        "dosage": [
          {
            "text": "2 Tabletten morgens"
          },
          {
            "timing": {
              "repeat": {
                "boundsPeriod": {
                  "start": "2020-02-05"
                },
                "when": [
                  "CM"
                ]
              }
            },
            "route": {
              "coding": [
                {
                  "system": "urn:oid:0.4.0.127.0.16.1.1.2.1",
                  "code": "20053000",
                  "display": "Oral use"
                }
              ]
            },
            "doseAndRate": [
              {
                "doseQuantity": {
                  "value": 2,
                  "unit": "Tablette",
                  "system": "http://unitsofmeasure.org",
                  "code": "1"
                }
              }
            ]
          }
        ]
      }
    },
    {
      "fullUrl": "http://test.fhir.ch/r4/MedicationStatement/A6-MedStatImigran-Spray-Analyzer",
      "resource": {
        "resourceType": "MedicationStatement",
        "id": "A6-MedStatImigran-Spray-Analyzer",
        "meta": {
          "profile": [
            "http://chmed20af.emediplan.ch/fhir/StructureDefinition/chmed20af-analyzer-medicationstatement"
          ]
        },
        "text": {
          "status": "generated",
          "div": "<div xmlns=\"http://www.w3.org/1999/xhtml\"><p><b>Generated Narrative with Details</b></p><p><b>id</b>: A6-MedStatImigran-Spray-Analyzer</p><p><b>meta</b>: </p><p><b>contained</b>: </p><p><b>status</b>: completed</p><p><b>category</b>: Nervensystem <span style=\"background: LightGoldenRodYellow\">(Details : {http://www.whocc.no/atc code 'N' = 'N', given as 'Nervensystem'})</span></p><p><b>medication</b>: unknown resource contained</p><p><b>subject</b>: <a href=\"#backboneelement_MonikaWegmueller\">Generated Summary: unknown resource entry</a></p><p><b>informationSource</b>: <a href=\"#backboneelement_SpezialistMetzler\">Generated Summary: unknown resource entry</a></p><p><b>derivedFrom</b>: </p><ul><li><a href=\"#backboneelement_A6-MedStatImigran-Tbl\">Generated Summary: unknown resource entry</a></li><li><a href=\"#backboneelement_A6-History-ChangeROA\">Generated Summary: unknown resource entry</a></li><li><a href=\"#backboneelement_A6-MedStatImigran-Spray\">Generated Summary: unknown resource entry</a></li></ul><p><b>dosage</b>: , </p></div>"
        },
        "contained": [
          {
            "resourceType": "Medication",
            "id": "cont1",
            "code": {
              "coding": [
                {
                  "system": "urn:oid:2.51.1.1",
                  "code": "7680537080138",
                  "display": "IMIGRAN Nasenspray 10 mg"
                }
              ],
              "text": "IMIGRAN Nasenspray 10 mg"
            },
            "form": {
              "coding": [
                {
                  "system": "urn:oid:0.4.0.127.0.16.1.1.2.1",
                  "code": "10808000",
                  "display": "Nasal spray, solution"
                }
              ]
            },
            "amount": {
              "numerator": {
                "value": 2
              },
              "denominator": {
                "value": 1
              }
            },
            "ingredient": [
              {
                "itemCodeableConcept": {
                  "coding": [
                    {
                      "system": "http://snomed.info/sct",
                      "code": "395892000",
                      "display": "Sumatriptan (substance)"
                    }
                  ]
                },
                "strength": {
                  "numerator": {
                    "value": 10,
                    "unit": "mg"
                  },
                  "denominator": {
                    "value": 1
                  }
                }
              }
            ]
          }
        ],
        "status": "completed",
        "category": {
          "coding": [
            {
              "system": "http://www.whocc.no/atc",
              "code": "N",
              "display": "Nervensystem"
            }
          ]
        },
        "medicationReference": {
          "reference": "#cont1"
        },
        "subject": {
          "reference": "Patient/MonikaWegmueller"
        },
        "informationSource": {
          "reference": "Practitioner/SpezialistMetzler"
        },
        "derivedFrom": [
          {
            "reference": "MedicationStatement/A6-MedStatImigran-Tbl"
          },
          {
            "reference": "Observation/A6-History-ChangeROA"
          },
          {
            "reference": "MedicationStatement/A6-MedStatImigran-Spray"
          }
        ],
        "dosage": [
          {
            "text": "2 Hübe morgens"
          },
          {
            "timing": {
              "repeat": {
                "boundsPeriod": {
                  "start": "2020-03-01"
                },
                "when": [
                  "CM"
                ]
              }
            },
            "route": {
              "coding": [
                {
                  "system": "urn:oid:0.4.0.127.0.16.1.1.2.1",
                  "code": "20049000",
                  "display": "Nasal use"
                }
              ]
            },
            "doseAndRate": [
              {
                "doseQuantity": {
                  "value": 2,
                  "unit": "Hübe",
                  "system": "http://unitsofmeasure.org",
                  "code": "1"
                }
              }
            ]
          }
        ]
      }
    },
    {
      "fullUrl": "http://test.fhir.ch/r4/MedicationStatement/A6-MedStatImigran-Tbl",
      "resource": {
        "resourceType": "MedicationStatement",
        "id": "A6-MedStatImigran-Tbl",
        "meta": {
          "profile": [
            "http://chmed20af.emediplan.ch/fhir/StructureDefinition/chmed20af-analyzer-medicationstatement"
          ]
        },
        "text": {
          "status": "generated",
          "div": "<div xmlns=\"http://www.w3.org/1999/xhtml\"><p><b>Generated Narrative with Details</b></p><p><b>id</b>: A6-MedStatImigran-Tbl</p><p><b>meta</b>: </p><p><b>contained</b>: </p><p><b>status</b>: completed</p><p><b>category</b>: Nervensystem <span style=\"background: LightGoldenRodYellow\">(Details : {http://www.whocc.no/atc code 'N' = 'N', given as 'Nervensystem'})</span></p><p><b>medication</b>: unknown resource contained</p><p><b>subject</b>: <a href=\"#backboneelement_MonikaWegmueller\">Generated Summary: unknown resource entry</a></p><p><b>informationSource</b>: <a href=\"#backboneelement_SpezialistMetzler\">Generated Summary: unknown resource entry</a></p><p><b>reasonCode</b>: Migräne <span style=\"background: LightGoldenRodYellow\">(Details )</span></p><p><b>dosage</b>: , </p></div>"
        },
        "contained": [
          {
            "resourceType": "Medication",
            "id": "cont1",
            "code": {
              "coding": [
                {
                  "system": "urn:oid:2.51.1.1",
                  "code": "7680516850592",
                  "display": "IMIGRAN 50 mg Filmtabl"
                }
              ],
              "text": "IMIGRAN 50 mg Filmtabl"
            },
            "form": {
              "coding": [
                {
                  "system": "urn:oid:0.4.0.127.0.16.1.1.2.1",
                  "code": "10221000",
                  "display": "Film-coated tablet"
                }
              ]
            },
            "amount": {
              "numerator": {
                "value": 12
              },
              "denominator": {
                "value": 1
              }
            },
            "ingredient": [
              {
                "itemCodeableConcept": {
                  "coding": [
                    {
                      "system": "http://snomed.info/sct",
                      "code": "395892000",
                      "display": "Sumatriptan (substance)"
                    }
                  ]
                },
                "strength": {
                  "numerator": {
                    "value": 50,
                    "unit": "mg"
                  },
                  "denominator": {
                    "value": 1
                  }
                }
              }
            ]
          }
        ],
        "extension": [
          {
            "url": "http://chmed20af.emediplan.ch/fhir/StructureDefinition/chmed20af-infoinputdocument",
            "extension": [
              {
                "url": "http://chmed20af.emediplan.ch/fhir/StructureDefinition/chmed20af-inputdocumentsource",
                "valueString": "Cara"
              },
              {
                "url": "http://chmed20af.emediplan.ch/fhir/StructureDefinition/chmed20af-inputdocumenttype",
                "valueCodeableConcept": {
                  "coding": [
                    {
                      "system": "http://loinc.org",
                      "code": "56445-0",
                      "display": "Medication summary"
                    }
                  ]
                }
              },
              {
                "url": "http://chmed20af.emediplan.ch/fhir/StructureDefinition/chmed20af-inputdocumentdate",
                "valueDateTime": "2020-02-05T09:00:00+01:00"
              }
            ]
          }
        ],
        "status": "completed",
        "category": {
          "coding": [
            {
              "system": "http://www.whocc.no/atc",
              "code": "N",
              "display": "Nervensystem"
            }
          ]
        },
        "medicationReference": {
          "reference": "#cont1"
        },
        "subject": {
          "reference": "Patient/MonikaWegmueller"
        },
        "informationSource": {
          "reference": "Practitioner/SpezialistMetzler"
        },
        "reasonCode": [
          {
            "text": "Migräne"
          }
        ],
        "dosage": [
          {
            "text": "2 Tabletten morgens"
          },
          {
            "timing": {
              "repeat": {
                "boundsPeriod": {
                  "start": "2020-02-05"
                },
                "when": [
                  "CM"
                ]
              }
            },
            "route": {
              "coding": [
                {
                  "system": "urn:oid:0.4.0.127.0.16.1.1.2.1",
                  "code": "20053000",
                  "display": "Oral use"
                }
              ]
            },
            "doseAndRate": [
              {
                "doseQuantity": {
                  "value": 2,
                  "unit": "Tablette",
                  "system": "http://unitsofmeasure.org",
                  "code": "1"
                }
              }
            ]
          }
        ]
      }
    },
    {
      "fullUrl": "http://test.fhir.ch/r4/Observation/A6-History-ChangeROA",
      "resource": {
        "resourceType": "Observation",
        "id": "A6-History-ChangeROA",
        "meta": {
          "profile": [
            "http://chmed20af.emediplan.ch/fhir/StructureDefinition/chmed20af-analyzer-observationhistory"
          ]
        },
        "text": {
          "status": "generated",
          "div": "<div xmlns=\"http://www.w3.org/1999/xhtml\"><p><b>Generated Narrative with Details</b></p><p><b>id</b>: A6-History-ChangeROA</p><p><b>meta</b>: </p><p><b>status</b>: final</p><p><b>code</b>: CHANGE <span style=\"background: LightGoldenRodYellow\">(Details : {urn:oid:1.3.6.1.4.1.19376.1.9.2.1 code 'CHANGE' = 'CHANGE)</span></p><p><b>value</b>: changeROA <span style=\"background: LightGoldenRodYellow\">(Details : {http://chmed20af.emediplan.ch/fhir/CodeSystem/chmed20af-codesystem-history-changes code 'changeROA' = 'changeROA)</span></p></div>"
        },
        "status": "final",
        "code": {
          "coding": [
            {
              "system": "urn:oid:1.3.6.1.4.1.19376.1.9.2.1",
              "code": "CHANGE"
            }
          ]
        },
        "valueCodeableConcept": {
          "coding": [
            {
              "system": "http://chmed20af.emediplan.ch/fhir/CodeSystem/chmed20af-codesystem-history-changes",
              "code": "changeROA"
            }
          ]
        }
      }
    },
    {
      "fullUrl": "http://test.fhir.ch/r4/MedicationStatement/A6-MedStatImigran-Spray",
      "resource": {
        "resourceType": "MedicationStatement",
        "id": "A6-MedStatImigran-Spray",
        "meta": {
          "profile": [
            "http://chmed20af.emediplan.ch/fhir/StructureDefinition/chmed20af-analyzer-medicationstatement"
          ]
        },
        "text": {
          "status": "generated",
          "div": "<div xmlns=\"http://www.w3.org/1999/xhtml\"><p><b>Generated Narrative with Details</b></p><p><b>id</b>: A6-MedStatImigran-Spray</p><p><b>meta</b>: </p><p><b>contained</b>: </p><p><b>status</b>: completed</p><p><b>category</b>: Nervensystem <span style=\"background: LightGoldenRodYellow\">(Details : {http://www.whocc.no/atc code 'N' = 'N', given as 'Nervensystem'})</span></p><p><b>medication</b>: unknown resource contained</p><p><b>subject</b>: <a href=\"#backboneelement_MonikaWegmueller\">Generated Summary: unknown resource entry</a></p><p><b>informationSource</b>: <a href=\"#backboneelement_SpezialistMetzler\">Generated Summary: unknown resource entry</a></p><p><b>reasonCode</b>: Migräne <span style=\"background: LightGoldenRodYellow\">(Details )</span></p><p><b>dosage</b>: , </p></div>"
        },
        "contained": [
          {
            "resourceType": "Medication",
            "id": "cont1",
            "code": {
              "coding": [
                {
                  "system": "urn:oid:2.51.1.1",
                  "code": "7680537080138",
                  "display": "IMIGRAN Nasenspray 10 mg"
                }
              ],
              "text": "IMIGRAN Nasenspray 10 mg"
            },
            "form": {
              "coding": [
                {
                  "system": "urn:oid:0.4.0.127.0.16.1.1.2.1",
                  "code": "10808000",
                  "display": "Nasal spray, solution"
                }
              ]
            },
            "amount": {
              "numerator": {
                "value": 2
              },
              "denominator": {
                "value": 1
              }
            },
            "ingredient": [
              {
                "itemCodeableConcept": {
                  "coding": [
                    {
                      "system": "http://snomed.info/sct",
                      "code": "395892000",
                      "display": "Sumatriptan (substance)"
                    }
                  ]
                },
                "strength": {
                  "numerator": {
                    "value": 10,
                    "unit": "mg"
                  },
                  "denominator": {
                    "value": 1
                  }
                }
              }
            ]
          }
        ],
        "extension": [
          {
            "url": "http://chmed20af.emediplan.ch/fhir/StructureDefinition/chmed20af-infoinputdocument",
            "extension": [
              {
                "url": "http://chmed20af.emediplan.ch/fhir/StructureDefinition/chmed20af-inputdocumentsource",
                "valueString": "Cara"
              },
              {
                "url": "http://chmed20af.emediplan.ch/fhir/StructureDefinition/chmed20af-inputdocumenttype",
                "valueCodeableConcept": {
                  "coding": [
                    {
                      "system": "http://loinc.org",
                      "code": "56445-0",
                      "display": "Medication summary"
                    }
                  ]
                }
              },
              {
                "url": "http://chmed20af.emediplan.ch/fhir/StructureDefinition/chmed20af-inputdocumentdate",
                "valueDateTime": "2020-03-01T10:30:00+01:00"
              }
            ]
          }
        ],
        "status": "completed",
        "category": {
          "coding": [
            {
              "system": "http://www.whocc.no/atc",
              "code": "N",
              "display": "Nervensystem"
            }
          ]
        },
        "medicationReference": {
          "reference": "#cont1"
        },
        "subject": {
          "reference": "Patient/MonikaWegmueller"
        },
        "informationSource": {
          "reference": "Practitioner/SpezialistMetzler"
        },
        "reasonCode": [
          {
            "text": "Migräne"
          }
        ],
        "dosage": [
          {
            "text": "2 Hübe morgens"
          },
          {
            "timing": {
              "repeat": {
                "boundsPeriod": {
                  "start": "2020-03-01"
                },
                "when": [
                  "CM"
                ]
              }
            },
            "route": {
              "coding": [
                {
                  "system": "urn:oid:0.4.0.127.0.16.1.1.2.1",
                  "code": "20049000",
                  "display": "Nasal use"
                }
              ]
            },
            "doseAndRate": [
              {
                "doseQuantity": {
                  "value": 2,
                  "unit": "Hübe",
                  "system": "http://unitsofmeasure.org",
                  "code": "1"
                }
              }
            ]
          }
        ]
      }
    }
  ]
}