<?xml version="1.0" encoding="UTF-8"?>

<Bundle xmlns="http://hl7.org/fhir">
  <id value="1-1-ConsolidatedMedicationCard"/>
  <meta>
    <profile value="http://chmed20af.emediplan.ch/fhir/StructureDefinition/chmed20af-analyzer-bundle"/>
  </meta>
  <identifier>
    <system value="http://emediplan.ch/chmed20af/id"/>
    <value value="26d3dff7-ab05-4737-a49c-5eccd3350000"/>
  </identifier>
  <type value="document"/>
  <timestamp value="2020-03-27T12:00:00.000+00:00"/>
  <entry>
    <fullUrl value="http://test.fhir.ch/r4/Composition/1-1-Analyzer"/>
    <resource>
      <Composition>
        <id value="1-1-Analyzer"/>
        <meta>
          <profile value="http://chmed20af.emediplan.ch/fhir/StructureDefinition/chmed20af-analyzer-composition"/>
        </meta>
        <text>
          <status value="generated"/><div xmlns="http://www.w3.org/1999/xhtml"><p><b>Generated Narrative with Details</b></p><p><b>id</b>: 1-1-Analyzer</p><p><b>meta</b>: </p><p><b>status</b>: final</p><p><b>type</b>: Medication summary document (record artifact) <span style="background: LightGoldenRodYellow">(Details : {SNOMED CT code '721912009' = 'Medication summary document (record artifact)', given as 'Medication summary document (record artifact)'})</span></p><p><b>date</b>: Mar 27, 2020, 1:00:00 PM</p><p><b>author</b>: <a href="#backboneelement_Analyzer">Generated Summary: unknown resource entry</a></p><p><b>title</b>: Medikationsplan</p></div>
        </text>
        <status value="final"/>
        <type>
          <coding>
            <system value="http://snomed.info/sct"/>
            <code value="721912009"/>
            <display value="Medication summary document (record artifact)"/>
          </coding>
        </type>
        <subject>
          <reference value="Patient/MonikaWegmueller"/>
        </subject>
        <date value="2020-03-27T12:00:00.000+00:00"/>
        <author>
          <reference value="Device/Analyzer"/>
        </author>
        <title value="Medikationsplan"/>
        <section>
          <entry>
            <reference value="MedicationStatement/1-1-MedStatTriatec-Analyzer"/>
          </entry>
        </section>
      </Composition>
    </resource>
  </entry>
  <entry>
    <fullUrl value="http://test.fhir.ch/r4/Patient/MonikaWegmueller"/>
    <resource>
      <Patient>
        <id value="MonikaWegmueller"/>
        <meta>
          <profile value="http://chmed20af.emediplan.ch/fhir/StructureDefinition/chmed20af-analyzer-patient"/>
        </meta>
        <text>
          <status value="generated"/><div xmlns="http://www.w3.org/1999/xhtml"><p><b>Generated Narrative with Details</b></p><p><b>id</b>: MonikaWegmueller</p><p><b>meta</b>: </p><p><b>identifier</b>: Medical record number = 11111111</p><p><b>name</b>: Monika Wegm체ller </p><p><b>gender</b>: female</p><p><b>birthDate</b>: 1943-05-15</p><p><b>address</b>: Wiesenstr. 12 Z체rich 8003 CH </p></div>
        </text>
        <identifier>
          <type>
            <coding>
              <system value="http://terminology.hl7.org/CodeSystem/v2-0203"/>
              <code value="MR"/>
            </coding>
          </type>
          <system value="urn:oid:2.999"/>
          <value value="11111111"/>
        </identifier>
        <name>
          <family value="Wegm&#xFC;ller"/>
          <given value="Monika"/>
        </name>
        <gender value="female"/>
        <birthDate value="1943-05-15"/>
        <address>
          <line value="Wiesenstr. 12"/>
          <city value="Z&#xFC;rich"/>
          <postalCode value="8003"/>
          <country value="CH"/>
        </address>
      </Patient>
    </resource>
  </entry>
  <entry>
    <fullUrl value="http://test.fhir.ch/r4/Practitioner/FamilienHausarzt"/>
    <resource>
      <Practitioner>
        <id value="FamilienHausarzt"/>
        <meta>
          <profile value="http://chmed20af.emediplan.ch/fhir/StructureDefinition/chmed20af-analyzer-practitioner"/>
        </meta>
        <text>
          <status value="generated"/><div xmlns="http://www.w3.org/1999/xhtml"><p><b>Generated Narrative with Details</b></p><p><b>id</b>: FamilienHausarzt</p><p><b>meta</b>: </p><p><b>identifier</b>: 7601000234438</p><p><b>name</b>: Familien Hausarzt </p></div>
        </text>
        <identifier>
          <system value="urn:oid:2.51.1.3"/>
          <value value="7601000234438"/>
        </identifier>
        <name>
          <family value="Hausarzt"/>
          <given value="Familien"/>
        </name>
      </Practitioner>
    </resource>
  </entry>
  <entry>
    <fullUrl value="http://test.fhir.ch/r4/Device/Analyzer"/>
    <resource>
      <Device>
        <id value="Analyzer"/>
        <meta>
          <profile value="http://hl7.org/fhir/StructureDefinition/Device"/>
        </meta>
        <text>
          <status value="generated"/><div xmlns="http://www.w3.org/1999/xhtml"><p><b>Generated Narrative with Details</b></p><p><b>id</b>: Analyzer</p><p><b>meta</b>: </p><h3>DeviceNames</h3><table class="grid"><tr><td>-</td><td><b>Name</b></td><td><b>Type</b></td></tr><tr><td>*</td><td>Analyzer</td><td>user-friendly-name</td></tr></table><h3>Versions</h3><table class="grid"><tr><td>-</td><td><b>Value</b></td></tr><tr><td>*</td><td>V1</td></tr></table></div>
        </text>
        <deviceName>
          <name value="Analyzer"/>
          <type value="user-friendly-name"/>
        </deviceName>
        <version>
          <value value="V1"/>
        </version>
      </Device>
    </resource>
  </entry>
<!--  Section entry: MedicationStatement  -->
  <entry>
    <fullUrl value="http://test.fhir.ch/r4/MedicationStatement/1-1-MedStatTriatec-Analyzer"/>
    <resource>
      <MedicationStatement>
        <id value="1-1-MedStatTriatec-Analyzer"/>
        <meta>
          <profile value="http://chmed20af.emediplan.ch/fhir/StructureDefinition/chmed20af-analyzer-medicationstatement"/>
        </meta>
        <text>
          <status value="generated"/><div xmlns="http://www.w3.org/1999/xhtml"><p><b>Generated Narrative with Details</b></p><p><b>id</b>: 1-1-MedStatTriatec-Analyzer</p><p><b>meta</b>: </p><p><b>contained</b>: </p><p><b>status</b>: completed</p><p><b>category</b>: Kardiovaskul채res System <span style="background: LightGoldenRodYellow">(Details : {http://www.whocc.no/atc code 'C' = 'C', given as 'Kardiovaskul채res System'})</span></p><p><b>medication</b>: unknown resource contained</p><p><b>subject</b>: <a href="#backboneelement_MonikaWegmueller">Generated Summary: unknown resource entry</a></p><p><b>informationSource</b>: <a href="#backboneelement_FamilienHausarzt">Generated Summary: unknown resource entry</a></p><p><b>derivedFrom</b>: <a href="#backboneelement_1-1-MedStatTriatec">Generated Summary: unknown resource entry</a></p><p><b>dosage</b>: , </p></div>
        </text>
        <contained>
          <Medication>
            <id value="med"/>
            <code>
              <coding>
                <system value="urn:oid:2.51.1.1"/>
                <code value="7680538751228"/>
                <display value="TRIATEC Tabl 2.5 mg 20 Stk"/>
              </coding>
              <text value="TRIATEC Tabl 2.5 mg"/>
            </code>
            <form>
              <coding>
                <system value="urn:oid:0.4.0.127.0.16.1.1.2.1"/>
                <code value="10219000"/>
                <display value="Tablet"/>
              </coding>
            </form>
            <amount>
              <numerator>
                <value value="20"/>
              </numerator>
              <denominator>
                <value value="1"/>
              </denominator>
            </amount>
            <ingredient>
              <itemCodeableConcept>
                <coding>
                  <system value="http://snomed.info/sct"/>
                  <code value="386872004"/>
                  <display value="Ramipril (substance)"/>
                </coding>
                <text value="Ramipril"/>
              </itemCodeableConcept>
              <strength>
                <numerator>
                  <value value="2.5"/>
                  <unit value="mg"/>
                </numerator>
                <denominator>
                  <value value="1"/>
                  <unit value="1"/>
                </denominator>
              </strength>
            </ingredient>
          </Medication>
        </contained>
        <status value="completed"/>
        <category>
          <coding>
            <system value="http://www.whocc.no/atc"/>
            <code value="C"/>
            <display value="Kardiovaskul&#xE4;res System"/>
          </coding>
        </category>
        <medicationReference>
          <reference value="#med"/>
        </medicationReference>
        <subject>
          <reference value="Patient/MonikaWegmueller"/>
        </subject>
        <informationSource>
          <reference value="Practitioner/FamilienHausarzt"/>
        </informationSource>
      <!--  History  -->
      <!--  1-1 Entscheid  -->
        <derivedFrom>
          <reference value="MedicationStatement/1-1-MedStatTriatec"/>
        </derivedFrom>
      <!-- <reasonCode>
                    <text value="Bluthochdruck"/>
                </reasonCode> -->
      <!-- <note>
                    <text value="-"/>
                </note> -->
        <dosage>
        <!-- <extension url="http://fhir.ch/ig/ch-emed/StructureDefinition/ch-emed-ext-dosagetype">
                        <valueIdentifier>
                            <value value="1.3.6.1.4.1.19376.1.5.3.1.4.7.1"/>
                        </valueIdentifier>
                    </extension> -->
          <timing>
            <repeat>
              <boundsPeriod>
                <start value="2011-11-29"/>
              </boundsPeriod>
              <when value="ACM"/>
            </repeat>
          </timing>
          <route>
            <coding>
              <system value="urn:oid:0.4.0.127.0.16.1.1.2.1"/>
              <code value="20053000"/>
              <display value="Oral use"/>
            </coding>
          </route>
          <doseAndRate>
            <doseQuantity>
              <value value="0.5"/>
            </doseQuantity>
          </doseAndRate>
        </dosage>
        <dosage>
          <text value="Morgens 1/2 Tablette nehmen"/>
        </dosage>
      </MedicationStatement>
    </resource>
  </entry>
<!--  Reference from MedicationStatement.derivedFrom (History)  -->
  <entry>
    <fullUrl value="http://test.fhir.ch/r4/MedicationStatement/1-1-MedStatTriatec"/>
    <resource>
      <MedicationStatement>
        <id value="1-1-MedStatTriatec"/>
        <meta>
          <profile value="http://chmed20af.emediplan.ch/fhir/StructureDefinition/chmed20af-analyzer-medicationstatement"/>
        </meta>
        <text>
          <status value="generated"/><div xmlns="http://www.w3.org/1999/xhtml"><p><b>Generated Narrative with Details</b></p><p><b>id</b>: 1-1-MedStatTriatec</p><p><b>meta</b>: </p><p><b>contained</b>: </p><p><b>status</b>: completed</p><p><b>category</b>: Kardiovaskul채res System <span style="background: LightGoldenRodYellow">(Details : {http://www.whocc.no/atc code 'C' = 'C', given as 'Kardiovaskul채res System'})</span></p><p><b>medication</b>: unknown resource contained</p><p><b>subject</b>: <a href="#backboneelement_MonikaWegmueller">Generated Summary: unknown resource entry</a></p><p><b>informationSource</b>: <a href="#backboneelement_FamilienHausarzt">Generated Summary: unknown resource entry</a></p><p><b>reasonCode</b>: Bluthochdruck <span style="background: LightGoldenRodYellow">(Details )</span></p><p><b>note</b>: -</p><p><b>dosage</b>: , </p></div>
        </text>
        <contained>
          <Medication>
            <id value="med"/>
            <code>
              <coding>
                <system value="urn:oid:2.51.1.1"/>
                <code value="7680538751228"/>
                <display value="TRIATEC Tabl 2.5 mg 20 Stk"/>
              </coding>
              <text value="TRIATEC Tabl 2.5 mg"/>
            </code>
            <form>
              <coding>
                <system value="urn:oid:0.4.0.127.0.16.1.1.2.1"/>
                <code value="10219000"/>
                <display value="Tablet"/>
              </coding>
            </form>
            <amount>
              <numerator>
                <value value="20"/>
              </numerator>
              <denominator>
                <value value="1"/>
              </denominator>
            </amount>
            <ingredient>
              <itemCodeableConcept>
                <coding>
                  <system value="http://snomed.info/sct"/>
                  <code value="386872004"/>
                  <display value="Ramipril (substance)"/>
                </coding>
                <text value="Ramipril"/>
              </itemCodeableConcept>
              <strength>
                <numerator>
                  <value value="2.5"/>
                  <unit value="mg"/>
                </numerator>
                <denominator>
                  <value value="1"/>
                  <unit value="1"/>
                </denominator>
              </strength>
            </ingredient>
          </Medication>
        </contained>
        <extension url="http://chmed20af.emediplan.ch/fhir/StructureDefinition/chmed20af-infoinputdocument">
          <extension url="http://chmed20af.emediplan.ch/fhir/StructureDefinition/chmed20af-inputdocumentsource">
            <valueString value="EPD"/>
          </extension>
          <extension url="http://chmed20af.emediplan.ch/fhir/StructureDefinition/chmed20af-inputdocumenttype">
            <valueCodeableConcept>
              <coding>
                <system value="http://loinc.org"/>
                <code value="77603-9"/>
                <display value="Medication treatment plan.extended"/>
              </coding>
            </valueCodeableConcept>
          </extension>
          <extension url="http://chmed20af.emediplan.ch/fhir/StructureDefinition/chmed20af-inputdocumentdate">
            <valueDateTime value="2011-11-29T11:00:00+01:00"/>
          </extension>
        </extension>
        <status value="completed"/>
        <category>
          <coding>
            <system value="http://www.whocc.no/atc"/>
            <code value="C"/>
            <display value="Kardiovaskul&#xE4;res System"/>
          </coding>
        </category>
        <medicationReference>
          <reference value="#med"/>
        </medicationReference>
        <subject>
          <reference value="Patient/MonikaWegmueller"/>
        </subject>
        <informationSource>
          <reference value="Practitioner/FamilienHausarzt"/>
        </informationSource>
        <reasonCode>
          <text value="Bluthochdruck"/>
        </reasonCode>
        <note>
          <text value="-"/>
        </note>
        <dosage>
          <extension url="http://fhir.ch/ig/ch-emed/StructureDefinition/ch-emed-ext-dosagetype">
            <valueIdentifier>
              <value value="1.3.6.1.4.1.19376.1.5.3.1.4.7.1"/>
            </valueIdentifier>
          </extension>
          <timing>
            <repeat>
              <boundsPeriod>
                <start value="2011-11-29"/>
              </boundsPeriod>
              <when value="ACM"/>
            </repeat>
          </timing>
          <route>
            <coding>
              <system value="urn:oid:0.4.0.127.0.16.1.1.2.1"/>
              <code value="20053000"/>
              <display value="Oral use"/>
            </coding>
          </route>
          <doseAndRate>
            <doseQuantity>
              <value value="0.5"/>
            </doseQuantity>
          </doseAndRate>
        </dosage>
        <dosage>
          <text value="Morgens 1/2 Tablette nehmen"/>
        </dosage>
      </MedicationStatement>
    </resource>
  </entry>
</Bundle>