{
  "resourceType": "Parameters",
  "id": "NorvascCard-Input-Analyzer",
  "parameter": [
    {
      "name": "ch-emed-doc",
      "resource": {
        "resourceType": "Bundle",
        "id": "2-5-MedicationTreatmentPlan",
        "identifier": {
          "system": "urn:ietf:rfc:3986",
          "value": "urn:uuid:5712fffe-20c6-11e6-b67b-9e71128cae77"
        },
        "type": "document",
        "timestamp": "2012-02-04T14:00:00+01:00",
        "entry": [
          {
            "fullUrl": "http://test.fhir.ch/r4/Composition/2-5-MedicationTreatmentPlan",
            "resource": {
              "resourceType": "Composition",
              "id": "2-5-MedicationTreatmentPlan",
              "language": "de-CH",
              "extension": [
                {
                  "url": "http://chmed20af.emediplan.ch/fhir/StructureDefinition/chmed20af-inputdocumentsource",
                  "valueString": "EPD"
                },
                {
                  "url": "http://fhir.ch/ig/ch-core/StructureDefinition/ch-ext-epr-setid",
                  "valueIdentifier": {
                    "system": "urn:ietf:rfc:3986",
                    "value": "urn:uuid:5712fffe-20c6-11e6-b67b-9e71128cae77"
                  }
                },
                {
                  "url": "http://fhir.ch/ig/ch-core/StructureDefinition/ch-ext-epr-versionnumber",
                  "valueUnsignedInt": 1
                },
                {
                  "url": "http://fhir.ch/ig/ch-core/StructureDefinition/ch-ext-epr-informationrecipient",
                  "valueReference": {
                    "reference": "Patient/MonikaWegmuellerRecipient"
                  }
                }
              ],
              "identifier": {
                "system": "urn:ietf:rfc:3986",
                "value": "urn:uuid:5712fffe-20c6-11e6-b67b-9e71128cae77"
              },
              "status": "final",
              "type": {
                "coding": [
                  {
                    "system": "http://snomed.info/sct",
                    "code": "419891008",
                    "display": "Record artifact (record artifact)"
                  },
                  {
                    "system": "http://loinc.org",
                    "code": "77603-9",
                    "display": "Medication treatment plan.extended"
                  }
                ]
              },
              "subject": {
                "reference": "Patient/MonikaWegmueller"
              },
              "date": "2012-02-04T14:00:00+01:00",
              "author": [
                {
                  "extension": [
                    {
                      "url": "http://fhir.ch/ig/ch-core/StructureDefinition/ch-ext-epr-time",
                      "valueDateTime": "2012-02-04T14:00:00+01:00"
                    }
                  ],
                  "reference": "Practitioner/FamilienHausarzt"
                },
                {
                  "reference": "Organization/Hausarzt"
                }
              ],
              "title": "Therapieentscheid Medikation",
              "confidentiality": "N",
              "_confidentiality": {
                "extension": [
                  {
                    "url": "http://fhir.ch/ig/ch-core/StructureDefinition/ch-ext-epr-confidentialitycode",
                    "valueCodeableConcept": {
                      "coding": [
                        {
                          "system": "http://snomed.info/sct",
                          "code": "17621005",
                          "display": "Normally accessible"
                        }
                      ]
                    }
                  }
                ]
              },
              "custodian": {
                "reference": "Organization/Custodian"
              },
              "section": [
                {
                  "extension": [
                    {
                      "url": "http://fhir.ch/ig/ch-core/StructureDefinition/ch-ext-epr-sectionid",
                      "valueIdentifier": {
                        "system": "urn:ietf:rfc:3986",
                        "value": "urn:uuid:5712fffe-20c6-11e6-b67b-9e71128cae77"
                      }
                    }
                  ],
                  "title": "Medikamentöser Behandlungsplan",
                  "code": {
                    "coding": [
                      {
                        "system": "http://loinc.org",
                        "code": "77604-7",
                        "display": "Medication treatment plan.brief"
                      }
                    ]
                  },
                  "text": {
                    "status": "generated",
                    "div": "<div xmlns=\"http://www.w3.org/1999/xhtml\">\n                                        <table>\n                                            <thead>\n                                                <tr>\n                                                    <th>Präpartename</th>\n                                                    <th>Wirkstoffname</th>\n                                                    <th>Galenische Form</th>\n                                                    <th>Dosis pro Einheit</th>\n                                                    <th>Dosierung</th>\n                                                    <th>Dos.Morgen</th>\n                                                    <th>Dos.Mittag</th>\n                                                    <th>Dos.Abend</th>\n                                                    <th>Dos.Nacht</th>\n                                                    <th>Verabreichungsweg</th>\n                                                    <th>Kommentar</th>\n                                                    <th>Anwendungsdauer</th>\n                                                    <th>Behandlungsgrund</th>\n                                                </tr>\n                                            </thead>\n                                            <tbody>\n                                                <tr id=\"mtp.1\">\n                                                    <td id=\"mtp.1.brandedmedication\">Norvasc</td>\n                                                    <td id=\"mtp.1.ingredient\">Amlodipin</td>\n                                                    <td id=\"mtp.1.packageform\">Tbl</td>\n                                                    <td id=\"mtp.1.dosequantity\">10 mg</td>\n                                                    <td id=\"mtp.1.dosageintakemode\">Morgens und abends je 1 Tablette nehmen</td>\n                                                    <td id=\"mtp.1.dosagemorning\">1</td>\n                                                    <td id=\"mtp.1.dosagelunch\">0</td>\n                                                    <td id=\"mtp.1.dosageevening\">1</td>\n                                                    <td id=\"mtp.1.dosagenight\">0</td>\n                                                    <td id=\"mtp.1.routecode\">oral</td>\n                                                    <td id=\"mtp.1.note\"/>\n                                                    <td id=\"mtp.1.datefromto\"/>\n                                                    <td id=\"mtp.1.reason\">Bluthochdruck</td>\n                                                </tr>\n                                            </tbody>\n                                        </table>\n                                    </div>"
                  },
                  "entry": [
                    {
                      "reference": "MedicationStatement/2-5-MedStatNorvasc"
                    }
                  ]
                }
              ]
            }
          },
          {
            "fullUrl": "http://test.fhir.ch/r4/Patient/MonikaWegmueller",
            "resource": {
              "resourceType": "Patient",
              "id": "MonikaWegmueller",
              "identifier": [
                {
                  "type": {
                    "coding": [
                      {
                        "system": "http://terminology.hl7.org/CodeSystem/v2-0203",
                        "code": "MR"
                      }
                    ]
                  },
                  "system": "urn:oid:2.999",
                  "value": "11111111"
                }
              ],
              "name": [
                {
                  "family": "Wegmüller",
                  "given": [
                    "Monika"
                  ]
                }
              ],
              "gender": "female",
              "birthDate": "1943-05-15",
              "address": [
                {
                  "line": [
                    "Wiesenstr. 12"
                  ],
                  "city": "Zürich",
                  "postalCode": "8003",
                  "country": "CH"
                }
              ]
            }
          },
          {
            "fullUrl": "http://test.fhir.ch/r4/Practitioner/FamilienHausarzt",
            "resource": {
              "resourceType": "Practitioner",
              "id": "FamilienHausarzt",
              "identifier": [
                {
                  "system": "urn:oid:2.51.1.3",
                  "value": "7601000234438"
                }
              ],
              "name": [
                {
                  "family": "Hausarzt",
                  "given": [
                    "Familien"
                  ]
                }
              ]
            }
          },
          {
            "fullUrl": "http://test.fhir.ch/r4/Organization/Hausarzt",
            "resource": {
              "resourceType": "Organization",
              "id": "Hausarzt",
              "identifier": [
                {
                  "system": "urn:oid:2.51.1.3",
                  "value": "7601000234438"
                }
              ],
              "name": "Hausarzt",
              "telecom": [
                {
                  "extension": [
                    {
                      "url": "http://hl7.org/fhir/StructureDefinition/iso21090-nullFlavor",
                      "valueCode": "NI"
                    }
                  ]
                }
              ],
              "address": [
                {
                  "line": [
                    "Krankenstrasse 2"
                  ],
                  "city": "Zürich",
                  "postalCode": "8005",
                  "country": "CH"
                }
              ]
            }
          },
          {
            "fullUrl": "http://test.fhir.ch/r4/Organization/Custodian",
            "resource": {
              "resourceType": "Organization",
              "id": "Custodian",
              "identifier": [
                {
                  "system": "urn:oid:2.51.1.3",
                  "value": "7601000234438"
                }
              ],
              "name": "Hausarzt"
            }
          },
          {
            "fullUrl": "http://test.fhir.ch/r4/Patient/MonikaWegmuellerRecipient",
            "resource": {
              "resourceType": "Patient",
              "id": "MonikaWegmuellerRecipient",
              "name": [
                {
                  "family": "Wegmüller",
                  "given": [
                    "Monika"
                  ]
                }
              ],
              "address": [
                {
                  "line": [
                    "Wiesenstr. 12"
                  ],
                  "city": "Zürich",
                  "postalCode": "8003",
                  "country": "CH"
                }
              ]
            }
          },
          {
            "fullUrl": "http://test.fhir.ch/r4/MedicationStatement/2-5-MedStatNorvasc",
            "resource": {
              "resourceType": "MedicationStatement",
              "id": "2-5-MedStatNorvasc",
              "contained": [
                {
                  "resourceType": "Medication",
                  "id": "med",
                  "code": {
                    "extension": [
                      {
                        "url": "http://hl7.org/fhir/StructureDefinition/narrativeLink",
                        "valueUrl": "#mtp.1.brandedmedication"
                      }
                    ],
                    "coding": [
                      {
                        "system": "urn:oid:2.51.1.1",
                        "code": "7680500440334",
                        "display": "NORVASC Tabl 10 mg"
                      }
                    ],
                    "text": "NORVASC Tabl 10 mg"
                  },
                  "form": {
                    "coding": [
                      {
                        "system": "urn:oid:0.4.0.127.0.16.1.1.2.1",
                        "code": "10219000",
                        "display": "Tablet"
                      }
                    ]
                  },
                  "amount": {
                    "numerator": {
                      "value": 30
                    },
                    "denominator": {
                      "value": 1
                    }
                  },
                  "ingredient": [
                    {
                      "itemCodeableConcept": {
                        "coding": [
                          {
                            "system": "http://snomed.info/sct",
                            "code": "386864001",
                            "display": "Amlodipine (substance)"
                          }
                        ],
                        "text": "Amlodipine"
                      },
                      "strength": {
                        "numerator": {
                          "value": 10,
                          "unit": "mg"
                        },
                        "denominator": {
                          "value": 1
                        }
                      }
                    }
                  ]
                }
              ],
              "extension": [
                {
                  "url": "http://hl7.org/fhir/StructureDefinition/narrativeLink",
                  "valueUrl": "#mtp.1"
                }
              ],
              "identifier": [
                {
                  "system": "urn:ietf:rfc:3986",
                  "value": "urn:uuid:5712fffe-20c6-11e6-b67b-9e71128cae77"
                }
              ],
              "status": "completed",
              "medicationReference": {
                "reference": "#med"
              },
              "subject": {
                "reference": "Patient/MonikaWegmueller"
              },
              "reasonCode": [
                {
                  "extension": [
                    {
                      "url": "http://hl7.org/fhir/StructureDefinition/narrativeLink",
                      "valueUrl": "#mtp.1.reason"
                    }
                  ],
                  "text": "Bluthochdruck"
                }
              ],
              "note": [
                {
                  "extension": [
                    {
                      "url": "http://hl7.org/fhir/StructureDefinition/narrativeLink",
                      "valueUrl": "#mtp.1.note"
                    }
                  ],
                  "text": "-"
                }
              ],
              "dosage": [
                {
                  "extension": [
                    {
                      "url": "http://fhir.ch/ig/ch-emed/StructureDefinition/ch-emed-ext-dosagetype",
                      "valueIdentifier": {
                        "value": "1.3.6.1.4.1.19376.1.5.3.1.4.7.1"
                      }
                    }
                  ],
                  "timing": {
                    "repeat": {
                      "boundsPeriod": {
                        "start": "2012-02-04"
                      },
                      "when": [
                        "ACM",
                        "ACV"
                      ]
                    }
                  },
                  "route": {
                    "coding": [
                      {
                        "system": "urn:oid:0.4.0.127.0.16.1.1.2.1",
                        "code": "20053000",
                        "display": "Oral use"
                      }
                    ]
                  }
                },
                {
                  "extension": [
                    {
                      "url": "http://hl7.org/fhir/StructureDefinition/narrativeLink",
                      "valueUrl": "#mtp.1.dosageintakemode"
                    }
                  ],
                  "text": "Morgens und abends je 1 Tablette nehmen"
                }
              ]
            }
          }
        ]
      }
    },
    {
      "name": "ch-emed-doc",
      "resource": {
        "resourceType": "Bundle",
        "id": "2-6-MedicationPrescription",
        "identifier": {
          "system": "urn:ietf:rfc:3986",
          "value": "urn:uuid:d41d72ba-2100-11e6-b67b-9e71128cae77"
        },
        "type": "document",
        "timestamp": "2012-02-04T14:00:00+01:00",
        "entry": [
          {
            "fullUrl": "http://test.fhir.ch/r4/Composition/2-6-MedicationPrescription",
            "resource": {
              "resourceType": "Composition",
              "id": "2-6-MedicationPrescription",
              "language": "de-CH",
              "extension": [
                {
                  "url": "http://chmed20af.emediplan.ch/fhir/StructureDefinition/chmed20af-inputdocumentsource",
                  "valueString": "EPD"
                },
                {
                  "url": "http://fhir.ch/ig/ch-core/StructureDefinition/ch-ext-epr-setid",
                  "valueIdentifier": {
                    "system": "urn:ietf:rfc:3986",
                    "value": "urn:uuid:d41d72ba-2100-11e6-b67b-9e71128cae77"
                  }
                },
                {
                  "url": "http://fhir.ch/ig/ch-core/StructureDefinition/ch-ext-epr-versionnumber",
                  "valueUnsignedInt": 1
                },
                {
                  "url": "http://fhir.ch/ig/ch-core/StructureDefinition/ch-ext-epr-informationrecipient",
                  "valueReference": {
                    "reference": "Patient/MonikaWegmuellerRecipient"
                  }
                }
              ],
              "identifier": {
                "system": "urn:ietf:rfc:3986",
                "value": "urn:uuid:d41d72ba-2100-11e6-b67b-9e71128cae77"
              },
              "status": "final",
              "type": {
                "coding": [
                  {
                    "system": "http://loinc.org",
                    "code": "57833-6",
                    "display": "Prescription for medication"
                  },
                  {
                    "system": "http://snomed.info/sct",
                    "code": "761938008",
                    "display": "Medical Prescription record (record artifact)"
                  }
                ]
              },
              "subject": {
                "reference": "Patient/MonikaWegmueller"
              },
              "date": "2012-02-04T14:00:00+01:00",
              "author": [
                {
                  "extension": [
                    {
                      "url": "http://fhir.ch/ig/ch-core/StructureDefinition/ch-ext-epr-time",
                      "valueDateTime": "2012-02-04T14:00:00+01:00"
                    }
                  ],
                  "reference": "Practitioner/FamilienHausarzt"
                },
                {
                  "reference": "Organization/Hausarzt"
                }
              ],
              "title": "Rezept",
              "confidentiality": "N",
              "_confidentiality": {
                "extension": [
                  {
                    "url": "http://fhir.ch/ig/ch-core/StructureDefinition/ch-ext-epr-confidentialitycode",
                    "valueCodeableConcept": {
                      "coding": [
                        {
                          "system": "http://snomed.info/sct",
                          "code": "17621005",
                          "display": "Normally accessible"
                        }
                      ]
                    }
                  }
                ]
              },
              "custodian": {
                "reference": "Organization/Custodian"
              },
              "section": [
                {
                  "extension": [
                    {
                      "url": "http://fhir.ch/ig/ch-core/StructureDefinition/ch-ext-epr-sectionid",
                      "valueIdentifier": {
                        "system": "urn:ietf:rfc:3986",
                        "value": "urn:uuid:d41d72ba-2100-11e6-b67b-9e71128cae77"
                      }
                    }
                  ],
                  "title": "Arzneimittelverordnung",
                  "code": {
                    "coding": [
                      {
                        "system": "http://loinc.org",
                        "code": "57828-6",
                        "display": "PRESCRIPTIONS"
                      }
                    ]
                  },
                  "text": {
                    "status": "generated",
                    "div": "<div xmlns=\"http://www.w3.org/1999/xhtml\">\n                                        <table>\n                                            <thead>\n                                                <tr>\n                                                    <th>Präpartename</th>\n                                                    <th>Wirkstoffname</th>\n                                                    <th>Galenische Form</th>\n                                                    <th>Dosis pro Einheit</th>\n                                                    <th>Wiederholter Bezug pro Arzneimittel</th>\n                                                    <th>Dosierung</th>\n                                                    <th>Dos.Morgen</th>\n                                                    <th>Dos.Mittag</th>\n                                                    <th>Dos.Abend</th>\n                                                    <th>Dos.Nacht</th>\n                                                    <th>Verabreichungsweg</th>\n                                                    <th>Kommentar</th>\n                                                    <th>Anwendungsdauer</th>\n                                                    <th>Substituierbarkeit</th>\n                                                    <th>Behandlungsgrund</th>\n                                                </tr>\n                                            </thead>\n                                            <tbody>\n                                                <tr id=\"pre.1\">\n                                                    <td id=\"pre.1.brandedmedication\">Norvasc</td>\n                                                    <td id=\"pre.1.ingredient\">Amlodipin</td>\n                                                    <td id=\"pre.1.dosequantity\">Tbl</td>\n                                                    <td id=\"pre.1.packageform\">10 mg/Tabl</td>\n                                                    <td id=\"pre.1.repeat\">Dauerrezept 3 Monate</td>\n                                                    <td id=\"pre.1.dosageintakemode\">Morgens und abends je 1 Tablette nehmen</td>\n                                                    <td id=\"pre.1.packagesize\">30</td>\n                                                    <td id=\"pre.1.dosagemorning\">1</td>\n                                                    <td id=\"pre.1.dosagelunch\">0</td>\n                                                    <td id=\"pre.1.dosageevening\">1</td>\n                                                    <td id=\"pre.1.dosagenight\">0</td>\n                                                    <td id=\"pre.1.routecode\">oral</td>\n                                                    <td id=\"pre.1.note\"/>\n                                                    <td id=\"pre.1.datefromto\"/>\n                                                    <td id=\"pre.1.subst\"/>\n                                                    <td id=\"pre.1.reason\"/>\n                                                </tr>\n                                            </tbody>\n                                        </table>\n                                    </div>"
                  },
                  "entry": [
                    {
                      "reference": "MedicationRequest/2-6-MedReqNorvasc"
                    }
                  ]
                }
              ]
            }
          },
          {
            "fullUrl": "http://test.fhir.ch/r4/Patient/MonikaWegmueller",
            "resource": {
              "resourceType": "Patient",
              "id": "MonikaWegmueller",
              "identifier": [
                {
                  "type": {
                    "coding": [
                      {
                        "system": "http://terminology.hl7.org/CodeSystem/v2-0203",
                        "code": "MR"
                      }
                    ]
                  },
                  "system": "urn:oid:2.999",
                  "value": "11111111"
                }
              ],
              "name": [
                {
                  "family": "Wegmüller",
                  "given": [
                    "Monika"
                  ]
                }
              ],
              "gender": "female",
              "birthDate": "1943-05-15",
              "address": [
                {
                  "line": [
                    "Wiesenstr. 12"
                  ],
                  "city": "Zürich",
                  "postalCode": "8003",
                  "country": "CH"
                }
              ]
            }
          },
          {
            "fullUrl": "http://test.fhir.ch/r4/Practitioner/FamilienHausarzt",
            "resource": {
              "resourceType": "Practitioner",
              "id": "FamilienHausarzt",
              "identifier": [
                {
                  "system": "urn:oid:2.51.1.3",
                  "value": "7601000234438"
                }
              ],
              "name": [
                {
                  "family": "Hausarzt",
                  "given": [
                    "Familien"
                  ]
                }
              ]
            }
          },
          {
            "fullUrl": "http://test.fhir.ch/r4/Organization/Hausarzt",
            "resource": {
              "resourceType": "Organization",
              "id": "Hausarzt",
              "identifier": [
                {
                  "system": "urn:oid:2.51.1.3",
                  "value": "7601000234438"
                }
              ],
              "name": "Hausarzt",
              "telecom": [
                {
                  "extension": [
                    {
                      "url": "http://hl7.org/fhir/StructureDefinition/iso21090-nullFlavor",
                      "valueCode": "NI"
                    }
                  ]
                }
              ],
              "address": [
                {
                  "line": [
                    "Krankenstrasse 2"
                  ],
                  "city": "Zürich",
                  "postalCode": "8005",
                  "country": "CH"
                }
              ]
            }
          },
          {
            "fullUrl": "http://test.fhir.ch/r4/Organization/Custodian",
            "resource": {
              "resourceType": "Organization",
              "id": "Custodian",
              "identifier": [
                {
                  "system": "urn:oid:2.51.1.3",
                  "value": "7601000234438"
                }
              ],
              "name": "Hausarzt"
            }
          },
          {
            "fullUrl": "http://test.fhir.ch/r4/Patient/MonikaWegmuellerRecipient",
            "resource": {
              "resourceType": "Patient",
              "id": "MonikaWegmuellerRecipient",
              "name": [
                {
                  "family": "Wegmüller",
                  "given": [
                    "Monika"
                  ]
                }
              ],
              "address": [
                {
                  "line": [
                    "Wiesenstr. 12"
                  ],
                  "city": "Zürich",
                  "postalCode": "8003",
                  "country": "CH"
                }
              ]
            }
          },
          {
            "fullUrl": "http://test.fhir.ch/r4/MedicationRequest/2-6-MedReqNorvasc",
            "resource": {
              "resourceType": "MedicationRequest",
              "id": "2-6-MedReqNorvasc",
              "contained": [
                {
                  "resourceType": "Medication",
                  "id": "med",
                  "code": {
                    "extension": [
                      {
                        "url": "http://hl7.org/fhir/StructureDefinition/narrativeLink",
                        "valueUrl": "#pre.1.brandedmedication"
                      }
                    ],
                    "coding": [
                      {
                        "system": "urn:oid:2.51.1.1",
                        "code": "7680500440334",
                        "display": "NORVASC Tabl 10 mg"
                      }
                    ],
                    "text": "NORVASC Tabl 10 mg"
                  },
                  "form": {
                    "coding": [
                      {
                        "system": "urn:oid:0.4.0.127.0.16.1.1.2.1",
                        "code": "10219000",
                        "display": "Tablet"
                      }
                    ]
                  },
                  "amount": {
                    "numerator": {
                      "value": 30
                    },
                    "denominator": {
                      "value": 1
                    }
                  },
                  "ingredient": [
                    {
                      "itemCodeableConcept": {
                        "coding": [
                          {
                            "system": "http://snomed.info/sct",
                            "code": "386864001",
                            "display": "Amlodipine (substance)"
                          }
                        ],
                        "text": "Amlodipine"
                      },
                      "strength": {
                        "numerator": {
                          "value": 10,
                          "unit": "mg"
                        },
                        "denominator": {
                          "value": 1
                        }
                      }
                    }
                  ]
                }
              ],
              "extension": [
                {
                  "url": "http://hl7.org/fhir/StructureDefinition/narrativeLink",
                  "valueUrl": "#pre.1"
                },
                {
                  "url": "http://fhir.ch/ig/ch-emed/StructureDefinition/ch-emed-ext-treatmentplan",
                  "extension": [
                    {
                      "url": "id",
                      "valueIdentifier": {
                        "system": "urn:ietf:rfc:3986",
                        "value": "urn:uuid:5712fffe-20c6-11e6-b67b-9e71128cae77"
                      }
                    },
                    {
                      "url": "externalDocumentId",
                      "valueIdentifier": {
                        "system": "urn:ietf:rfc:3986",
                        "value": "urn:uuid:5712fffe-20c6-11e6-b67b-9e71128cae77"
                      }
                    }
                  ]
                }
              ],
              "identifier": [
                {
                  "system": "urn:ietf:rfc:3986",
                  "value": "urn:uuid:d41d72ba-2100-11e6-b67b-9e71128cae77"
                }
              ],
              "status": "completed",
              "intent": "order",
              "medicationReference": {
                "reference": "#med"
              },
              "subject": {
                "reference": "Patient/MonikaWegmueller"
              },
              "reasonCode": [
                {
                  "extension": [
                    {
                      "url": "http://hl7.org/fhir/StructureDefinition/narrativeLink",
                      "valueUrl": "#pre.1.reason"
                    }
                  ],
                  "text": "-"
                }
              ],
              "note": [
                {
                  "extension": [
                    {
                      "url": "http://hl7.org/fhir/StructureDefinition/narrativeLink",
                      "valueUrl": "#pre.1.note"
                    }
                  ],
                  "text": "-"
                }
              ],
              "dosageInstruction": [
                {
                  "extension": [
                    {
                      "url": "http://fhir.ch/ig/ch-emed/StructureDefinition/ch-emed-ext-dosagetype",
                      "valueIdentifier": {
                        "value": "1.3.6.1.4.1.19376.1.5.3.1.4.7.1"
                      }
                    }
                  ],
                  "timing": {
                    "repeat": {
                      "boundsPeriod": {
                        "start": "2012-02-04"
                      },
                      "when": [
                        "ACM",
                        "ACV"
                      ]
                    }
                  },
                  "route": {
                    "coding": [
                      {
                        "system": "urn:oid:0.4.0.127.0.16.1.1.2.1",
                        "code": "20053000",
                        "display": "Oral use"
                      }
                    ]
                  },
                  "doseAndRate": [
                    {
                      "doseQuantity": {
                        "value": 1
                      }
                    }
                  ]
                },
                {
                  "extension": [
                    {
                      "url": "http://hl7.org/fhir/StructureDefinition/narrativeLink",
                      "valueUrl": "#pre.1.dosageintakemode"
                    }
                  ],
                  "text": "Morgens und abends je 1 Tablette nehmen"
                }
              ],
              "dispenseRequest": {
                "numberOfRepeatsAllowed": 2,
                "quantity": {
                  "value": 1
                }
              },
              "substitution": {
                "allowedCodeableConcept": {
                  "coding": [
                    {
                      "system": "http://terminology.hl7.org/CodeSystem/v3-substanceAdminSubstitution",
                      "code": "E",
                      "display": "equivalent"
                    }
                  ]
                }
              }
            }
          }
        ]
      }
    },
    {
      "name": "ch-emed-doc",
      "resource": {
        "resourceType": "Bundle",
        "id": "2-7-MedicationCard",
        "identifier": {
          "system": "urn:ietf:rfc:3986",
          "value": "urn:uuid:6b6ed376-a7da-44cb-92d1-e75ce1ae73b0"
        },
        "type": "document",
        "timestamp": "2012-02-04T14:05:00+01:00",
        "entry": [
          {
            "fullUrl": "http://test.fhir.ch/r4/Composition/2-7-MedicationCard",
            "resource": {
              "resourceType": "Composition",
              "id": "2-7-MedicationCard",
              "language": "de-CH",
              "extension": [
                {
                  "url": "http://chmed20af.emediplan.ch/fhir/StructureDefinition/chmed20af-inputdocumentsource",
                  "valueString": "EPD"
                },
                {
                  "url": "http://fhir.ch/ig/ch-core/StructureDefinition/ch-ext-epr-setid",
                  "valueIdentifier": {
                    "system": "urn:ietf:rfc:3986",
                    "value": "urn:uuid:6b6ed376-a7da-44cb-92d1-e75ce1ae73b0"
                  }
                },
                {
                  "url": "http://fhir.ch/ig/ch-core/StructureDefinition/ch-ext-epr-versionnumber",
                  "valueUnsignedInt": 1
                },
                {
                  "url": "http://fhir.ch/ig/ch-core/StructureDefinition/ch-ext-epr-informationrecipient",
                  "valueReference": {
                    "reference": "Patient/MonikaWegmuellerRecipient"
                  }
                }
              ],
              "identifier": {
                "system": "urn:ietf:rfc:3986",
                "value": "urn:uuid:6b6ed376-a7da-44cb-92d1-e75ce1ae73b0"
              },
              "status": "final",
              "type": {
                "coding": [
                  {
                    "system": "http://loinc.org",
                    "code": "56445-0",
                    "display": "Medication summary"
                  },
                  {
                    "system": "http://snomed.info/sct",
                    "code": "721912009",
                    "display": "Medication summary document (record artifact)"
                  }
                ]
              },
              "subject": {
                "reference": "Patient/MonikaWegmueller"
              },
              "date": "2012-02-04T14:05:00+01:00",
              "author": [
                {
                  "extension": [
                    {
                      "url": "http://fhir.ch/ig/ch-core/StructureDefinition/ch-ext-epr-time",
                      "valueDateTime": "2012-02-04T13:55:00+01:00"
                    }
                  ],
                  "reference": "Practitioner/FamilienHausarzt"
                },
                {
                  "reference": "Organization/Hausarzt"
                }
              ],
              "title": "Medikationsplan",
              "confidentiality": "N",
              "_confidentiality": {
                "extension": [
                  {
                    "url": "http://fhir.ch/ig/ch-core/StructureDefinition/ch-ext-epr-confidentialitycode",
                    "valueCodeableConcept": {
                      "coding": [
                        {
                          "system": "http://snomed.info/sct",
                          "code": "17621005",
                          "display": "Normally accessible"
                        }
                      ]
                    }
                  }
                ]
              },
              "custodian": {
                "reference": "Organization/Custodian"
              },
              "section": [
                {
                  "extension": [
                    {
                      "url": "http://fhir.ch/ig/ch-core/StructureDefinition/ch-ext-epr-sectionid",
                      "valueIdentifier": {
                        "system": "urn:ietf:rfc:3986",
                        "value": "urn:uuid:5fb3eacf-be0d-42aa-9619-abf008c50051"
                      }
                    }
                  ],
                  "title": "Medikamentenliste",
                  "code": {
                    "coding": [
                      {
                        "system": "http://loinc.org",
                        "code": "10160-0",
                        "display": "History of medication use"
                      }
                    ]
                  },
                  "text": {
                    "status": "generated",
                    "div": "<div xmlns=\"http://www.w3.org/1999/xhtml\">\n                                        <table>\n                                            <thead>\n                                                <tr>\n                                                    <th>Präpartename</th>\n                                                    <th>Wirkstoffname</th>\n                                                    <th>Galenische Form</th>\n                                                    <th>Dosis pro Einheit</th>\n                                                    <th>Dosierung</th>\n                                                    <th>Dos.Morgen</th>\n                                                    <th>Dos.Mittag</th>\n                                                    <th>Dos.Abend</th>\n                                                    <th>Dos.Nacht</th>\n                                                    <th>Verabreichungsweg</th>\n                                                    <th>Kommentar</th>\n                                                    <th>Anwendungsdauer</th>\n                                                    <th>Behandlungsgrund</th>\n                                                </tr>\n                                            </thead>\n                                            <tbody>\n                                                <tr id=\"mtpc.2\">\n                                                    <td id=\"mtpc.2.brandedmedication\">Norvasc</td>\n                                                    <td id=\"mtpc.2.ingredient\">Amlodipin</td>\n                                                    <td id=\"mtpc.2.packageform\">Tbl</td>\n                                                    <td id=\"mtpc.2.dosequantity\">10 mg</td>\n                                                    <td id=\"mtpc.2.dosageintakemode\">Morgens und abends je 1 Tablette nehmen</td>\n                                                    <td id=\"mtpc.2.dosagemorning\">1</td>\n                                                    <td id=\"mtpc.2.dosagelunch\">0</td>\n                                                    <td id=\"mtpc.2.dosageevening\">1</td>\n                                                    <td id=\"mtpc.2.dosagenight\">0</td>\n                                                    <td id=\"mtpc.2.routecode\">oral</td>\n                                                    <td id=\"mtpc.2.note\"/>\n                                                    <td id=\"mtpc.2.datefromto\">-</td>\n                                                    <td id=\"mtpc.2.reason\">Bluthochdruck</td>\n                                                </tr>\n                                            </tbody>\n                                        </table>\n                                    </div>"
                  },
                  "entry": [
                    {
                      "reference": "MedicationStatement/2-7-MedStatNorvasc"
                    }
                  ]
                }
              ]
            }
          },
          {
            "fullUrl": "http://test.fhir.ch/r4/Patient/MonikaWegmueller",
            "resource": {
              "resourceType": "Patient",
              "id": "MonikaWegmueller",
              "identifier": [
                {
                  "type": {
                    "coding": [
                      {
                        "system": "http://terminology.hl7.org/CodeSystem/v2-0203",
                        "code": "MR"
                      }
                    ]
                  },
                  "system": "urn:oid:2.999",
                  "value": "11111111"
                }
              ],
              "name": [
                {
                  "family": "Wegmüller",
                  "given": [
                    "Monika"
                  ]
                }
              ],
              "gender": "female",
              "birthDate": "1943-05-15",
              "address": [
                {
                  "line": [
                    "Wiesenstr. 12"
                  ],
                  "city": "Zürich",
                  "postalCode": "8003",
                  "country": "CH"
                }
              ]
            }
          },
          {
            "fullUrl": "http://test.fhir.ch/r4/Practitioner/FamilienHausarzt",
            "resource": {
              "resourceType": "Practitioner",
              "id": "FamilienHausarzt",
              "identifier": [
                {
                  "system": "urn:oid:2.51.1.3",
                  "value": "7601000234438"
                }
              ],
              "name": [
                {
                  "family": "Hausarzt",
                  "given": [
                    "Familien"
                  ]
                }
              ]
            }
          },
          {
            "fullUrl": "http://test.fhir.ch/r4/Organization/Hausarzt",
            "resource": {
              "resourceType": "Organization",
              "id": "Hausarzt",
              "identifier": [
                {
                  "system": "urn:oid:2.51.1.3",
                  "value": "7601000234438"
                }
              ],
              "name": "Hausarzt",
              "telecom": [
                {
                  "extension": [
                    {
                      "url": "http://hl7.org/fhir/StructureDefinition/iso21090-nullFlavor",
                      "valueCode": "NI"
                    }
                  ]
                }
              ],
              "address": [
                {
                  "line": [
                    "Krankenstrasse 2"
                  ],
                  "city": "Zürich",
                  "postalCode": "8005",
                  "country": "CH"
                }
              ]
            }
          },
          {
            "fullUrl": "http://test.fhir.ch/r4/Organization/Custodian",
            "resource": {
              "resourceType": "Organization",
              "id": "Custodian",
              "identifier": [
                {
                  "system": "urn:oid:2.51.1.3",
                  "value": "7601000234438"
                }
              ],
              "name": "Hausarzt"
            }
          },
          {
            "fullUrl": "http://test.fhir.ch/r4/Patient/MonikaWegmuellerRecipient",
            "resource": {
              "resourceType": "Patient",
              "id": "MonikaWegmuellerRecipient",
              "name": [
                {
                  "family": "Wegmüller",
                  "given": [
                    "Monika"
                  ]
                }
              ],
              "address": [
                {
                  "line": [
                    "Wiesenstr. 12"
                  ],
                  "city": "Zürich",
                  "postalCode": "8003",
                  "country": "CH"
                }
              ]
            }
          },
          {
            "fullUrl": "http://test.fhir.ch/r4/MedicationStatement/2-7-MedStatNorvasc",
            "resource": {
              "resourceType": "MedicationStatement",
              "id": "2-7-MedStatNorvasc",
              "contained": [
                {
                  "resourceType": "Medication",
                  "id": "med",
                  "code": {
                    "extension": [
                      {
                        "url": "http://hl7.org/fhir/StructureDefinition/narrativeLink",
                        "valueUrl": "#mtpc.2.brandedmedication"
                      }
                    ],
                    "coding": [
                      {
                        "system": "urn:oid:2.51.1.1",
                        "code": "7680500440334",
                        "display": "NORVASC Tabl 10 mg"
                      }
                    ],
                    "text": "NORVASC Tabl 10 mg"
                  },
                  "form": {
                    "coding": [
                      {
                        "system": "urn:oid:0.4.0.127.0.16.1.1.2.1",
                        "code": "10219000",
                        "display": "Tablet"
                      }
                    ]
                  },
                  "amount": {
                    "numerator": {
                      "value": 30
                    },
                    "denominator": {
                      "value": 1
                    }
                  },
                  "ingredient": [
                    {
                      "itemCodeableConcept": {
                        "coding": [
                          {
                            "system": "http://snomed.info/sct",
                            "code": "386864001",
                            "display": "Amlodipine (substance)"
                          }
                        ],
                        "text": "Amlodipine"
                      },
                      "strength": {
                        "numerator": {
                          "value": 10,
                          "unit": "mg"
                        },
                        "denominator": {
                          "value": 1
                        }
                      }
                    }
                  ]
                }
              ],
              "extension": [
                {
                  "url": "http://hl7.org/fhir/StructureDefinition/narrativeLink",
                  "valueUrl": "#mtpc.2"
                },
                {
                  "url": "http://fhir.ch/ig/ch-emed/StructureDefinition/ch-emed-ext-treatmentplan",
                  "extension": [
                    {
                      "url": "id",
                      "valueIdentifier": {
                        "system": "urn:ietf:rfc:3986",
                        "value": "urn:uuid:5712fffe-20c6-11e6-b67b-9e71128cae77"
                      }
                    },
                    {
                      "url": "externalDocumentId",
                      "valueIdentifier": {
                        "system": "urn:ietf:rfc:3986",
                        "value": "urn:uuid:5712fffe-20c6-11e6-b67b-9e71128cae77"
                      }
                    }
                  ]
                }
              ],
              "identifier": [
                {
                  "system": "urn:ietf:rfc:3986",
                  "value": "urn:uuid:534996fe-5e45-40ed-9388-06fa268e13d8"
                }
              ],
              "status": "completed",
              "medicationReference": {
                "reference": "#med"
              },
              "subject": {
                "reference": "Patient/MonikaWegmueller"
              },
              "reasonCode": [
                {
                  "extension": [
                    {
                      "url": "http://hl7.org/fhir/StructureDefinition/narrativeLink",
                      "valueUrl": "#mtpc.2.reason"
                    }
                  ],
                  "text": "Bluthochdruck"
                }
              ],
              "note": [
                {
                  "extension": [
                    {
                      "url": "http://hl7.org/fhir/StructureDefinition/narrativeLink",
                      "valueUrl": "#mtpc.2.note"
                    }
                  ],
                  "text": "-"
                }
              ],
              "dosage": [
                {
                  "extension": [
                    {
                      "url": "http://fhir.ch/ig/ch-emed/StructureDefinition/ch-emed-ext-dosagetype",
                      "valueIdentifier": {
                        "value": "1.3.6.1.4.1.19376.1.5.3.1.4.7.1"
                      }
                    }
                  ],
                  "timing": {
                    "repeat": {
                      "boundsPeriod": {
                        "start": "2012-02-04"
                      },
                      "when": [
                        "ACM",
                        "ACV"
                      ]
                    }
                  },
                  "route": {
                    "coding": [
                      {
                        "system": "urn:oid:0.4.0.127.0.16.1.1.2.1",
                        "code": "20053000",
                        "display": "Oral use"
                      }
                    ]
                  },
                  "doseAndRate": [
                    {
                      "doseQuantity": {
                        "value": 1
                      }
                    }
                  ]
                },
                {
                  "extension": [
                    {
                      "url": "http://hl7.org/fhir/StructureDefinition/narrativeLink",
                      "valueUrl": "#mtpc.2.dosageintakemode"
                    }
                  ],
                  "text": "Morgens und abends je 1 Tablette nehmen"
                }
              ]
            }
          }
        ]
      }
    }
  ]
}