{
  "resourceType": "Parameters",
  "id": "A5-Input-Analyzer",
  "parameter": [
    {
      "name": "ch-emed-doc",
      "resource": {
        "resourceType": "Bundle",
        "id": "A5-MedicationCard-Reniten",
        "identifier": {
          "system": "http://emediplan.ch/chmed20af/id",
          "value": "26d3dff7-ab05-4737-a49c-5eccd3359a5a"
        },
        "type": "document",
        "timestamp": "2020-03-10T11:00:00+01:00",
        "entry": [
          {
            "fullUrl": "http://test.fhir.ch/r4/Composition/A5-CompReniten",
            "resource": {
              "resourceType": "Composition",
              "id": "A5-CompReniten",
              "language": "de-CH",
              "extension": [
                {
                  "url": "http://chmed20af.emediplan.ch/fhir/StructureDefinition/chmed20af-inputdocumentsource",
                  "valueString": "Cara"
                },
                {
                  "url": "http://fhir.ch/ig/ch-core/StructureDefinition/ch-ext-epr-setid",
                  "valueIdentifier": {
                    "system": "http://emediplan.ch/chmed20af/id",
                    "value": "26d3dff7-ab05-4737-a49c-5eccd3359a5a"
                  }
                },
                {
                  "url": "http://fhir.ch/ig/ch-core/StructureDefinition/ch-ext-epr-versionnumber",
                  "valueUnsignedInt": 1
                },
                {
                  "url": "http://fhir.ch/ig/ch-core/StructureDefinition/ch-ext-epr-informationrecipient",
                  "valueReference": {
                    "reference": "Patient/MonikaWegmuellerRecipient"
                  }
                }
              ],
              "identifier": {
                "system": "http://emediplan.ch/chmed20af/id",
                "value": "26d3dff7-ab05-4737-a49c-5eccd3359a5a"
              },
              "status": "final",
              "type": {
                "coding": [
                  {
                    "system": "http://snomed.info/sct",
                    "code": "721912009",
                    "display": "Medication summary document (record artifact)"
                  }
                ]
              },
              "subject": {
                "reference": "Patient/MonikaWegmueller"
              },
              "date": "2020-03-10T11:00:00+01:00",
              "author": [
                {
                  "reference": "Practitioner/SpezialistMonney"
                }
              ],
              "title": "Medikationsplan",
              "confidentiality": "N",
              "_confidentiality": {
                "extension": [
                  {
                    "url": "http://fhir.ch/ig/ch-core/StructureDefinition/ch-ext-epr-confidentialitycode",
                    "valueCodeableConcept": {
                      "coding": [
                        {
                          "system": "http://snomed.info/sct",
                          "code": "17621005",
                          "display": "Normally accessible"
                        }
                      ]
                    }
                  }
                ]
              },
              "custodian": {
                "reference": "Organization/Spezialist"
              },
              "section": [
                {
                  "title": "Aktuelle Medikation",
                  "code": {
                    "coding": [
                      {
                        "system": "http://loinc.org",
                        "code": "10160-0",
                        "display": "History of medication use"
                      }
                    ]
                  },
                  "text": {
                    "status": "additional",
                    "div": "<div xmlns=\"http://www.w3.org/1999/xhtml\"> Aktuelle Medikation </div>"
                  },
                  "entry": [
                    {
                      "reference": "MedicationStatement/A5-MedStatReniten"
                    }
                  ]
                }
              ]
            }
          },
          {
            "fullUrl": "http://test.fhir.ch/r4/Patient/MonikaWegmueller",
            "resource": {
              "resourceType": "Patient",
              "id": "MonikaWegmueller",
              "identifier": [
                {
                  "type": {
                    "coding": [
                      {
                        "system": "http://terminology.hl7.org/CodeSystem/v2-0203",
                        "code": "MR"
                      }
                    ]
                  },
                  "system": "urn:oid:2.999",
                  "value": "11111111"
                }
              ],
              "name": [
                {
                  "family": "Wegmüller",
                  "given": [
                    "Monika"
                  ]
                }
              ],
              "gender": "female",
              "birthDate": "1943-05-15",
              "address": [
                {
                  "line": [
                    "Wiesenstr. 12"
                  ],
                  "city": "Zürich",
                  "postalCode": "8003",
                  "country": "CH"
                }
              ]
            }
          },
          {
            "fullUrl": "http://test.fhir.ch/r4/Practitioner/SpezialistMonney",
            "resource": {
              "resourceType": "Practitioner",
              "id": "SpezialistMonney",
              "identifier": [
                {
                  "system": "urn:oid:2.51.1.3",
                  "value": "7601000239933"
                }
              ],
              "name": [
                {
                  "family": "Monney",
                  "given": [
                    "Spezialist"
                  ]
                }
              ]
            }
          },
          {
            "fullUrl": "http://test.fhir.ch/r4/Organization/Spezialist",
            "resource": {
              "resourceType": "Organization",
              "id": "Spezialist",
              "identifier": [
                {
                  "system": "urn:oid:2.51.1.3",
                  "value": "7601000239933"
                }
              ],
              "name": "Spezialist"
            }
          },
          {
            "fullUrl": "http://test.fhir.ch/r4/Patient/MonikaWegmuellerRecipient",
            "resource": {
              "resourceType": "Patient",
              "id": "MonikaWegmuellerRecipient",
              "name": [
                {
                  "family": "Wegmüller",
                  "given": [
                    "Monika"
                  ]
                }
              ],
              "address": [
                {
                  "line": [
                    "Wiesenstr. 12"
                  ],
                  "city": "Zürich",
                  "postalCode": "8003",
                  "country": "CH"
                }
              ]
            }
          },
          {
            "fullUrl": "http://test.fhir.ch/r4/MedicationStatement/A5-MedStatReniten",
            "resource": {
              "resourceType": "MedicationStatement",
              "id": "A5-MedStatReniten",
              "contained": [
                {
                  "resourceType": "Medication",
                  "id": "cont1",
                  "code": {
                    "coding": [
                      {
                        "system": "urn:oid:2.51.1.1",
                        "code": "7680460380299",
                        "display": "RENITEN Tabl 20 mg"
                      }
                    ],
                    "text": "RENITEN Tabl 20 mg"
                  },
                  "form": {
                    "coding": [
                      {
                        "system": "urn:oid:0.4.0.127.0.16.1.1.2.1",
                        "code": "10219000",
                        "display": "Tablet"
                      }
                    ]
                  },
                  "amount": {
                    "numerator": {
                      "value": 98
                    },
                    "denominator": {
                      "value": 1
                    }
                  },
                  "ingredient": [
                    {
                      "itemCodeableConcept": {
                        "coding": [
                          {
                            "system": "http://snomed.info/sct",
                            "code": "387165009",
                            "display": "Enalapril maleate (substance)"
                          }
                        ]
                      },
                      "strength": {
                        "numerator": {
                          "value": 20,
                          "unit": "mg"
                        },
                        "denominator": {
                          "value": 1
                        }
                      }
                    }
                  ]
                }
              ],
              "status": "completed",
              "category": {
                "coding": [
                  {
                    "system": "http://www.whocc.no/atc",
                    "code": "C",
                    "display": "Kardiovaskuläres System"
                  }
                ]
              },
              "medicationReference": {
                "reference": "#cont1"
              },
              "subject": {
                "reference": "Patient/MonikaWegmueller"
              },
              "reasonCode": [
                {
                  "text": "Bluthochdruck"
                }
              ],
              "dosage": [
                {
                  "text": "1 Tablette morgens"
                },
                {
                  "timing": {
                    "repeat": {
                      "boundsPeriod": {
                        "start": "2020-03-10"
                      },
                      "when": [
                        "CM"
                      ]
                    }
                  },
                  "route": {
                    "coding": [
                      {
                        "system": "urn:oid:0.4.0.127.0.16.1.1.2.1",
                        "code": "20053000",
                        "display": "Oral use"
                      }
                    ]
                  },
                  "doseAndRate": [
                    {
                      "doseQuantity": {
                        "value": 1,
                        "unit": "Tablette",
                        "system": "http://unitsofmeasure.org",
                        "code": "1"
                      }
                    }
                  ]
                }
              ]
            }
          }
        ]
      }
    },
    {
      "name": "ch-emed-doc",
      "resource": {
        "resourceType": "Bundle",
        "id": "A5-MedicationCard-Exforge",
        "identifier": {
          "system": "http://emediplan.ch/chmed20af/id",
          "value": "26d3dff7-ab05-4737-a49c-5eccd3359a5b"
        },
        "type": "document",
        "timestamp": "2020-03-23T15:00:00+01:00",
        "entry": [
          {
            "fullUrl": "http://test.fhir.ch/r4/Composition/A5-CompReniten",
            "resource": {
              "resourceType": "Composition",
              "id": "A5-CompReniten",
              "language": "de-CH",
              "extension": [
                {
                  "url": "http://chmed20af.emediplan.ch/fhir/StructureDefinition/chmed20af-inputdocumentsource",
                  "valueString": "Cara"
                },
                {
                  "url": "http://fhir.ch/ig/ch-core/StructureDefinition/ch-ext-epr-setid",
                  "valueIdentifier": {
                    "system": "http://emediplan.ch/chmed20af/id",
                    "value": "26d3dff7-ab05-4737-a49c-5eccd3359a5b"
                  }
                },
                {
                  "url": "http://fhir.ch/ig/ch-core/StructureDefinition/ch-ext-epr-versionnumber",
                  "valueUnsignedInt": 1
                },
                {
                  "url": "http://fhir.ch/ig/ch-core/StructureDefinition/ch-ext-epr-informationrecipient",
                  "valueReference": {
                    "reference": "Patient/MonikaWegmuellerRecipient"
                  }
                }
              ],
              "identifier": {
                "system": "http://emediplan.ch/chmed20af/id",
                "value": "26d3dff7-ab05-4737-a49c-5eccd3359a5b"
              },
              "status": "final",
              "type": {
                "coding": [
                  {
                    "system": "http://snomed.info/sct",
                    "code": "721912009",
                    "display": "Medication summary document (record artifact)"
                  }
                ]
              },
              "subject": {
                "reference": "Patient/MonikaWegmueller"
              },
              "date": "2020-03-23T15:00:00+01:00",
              "author": [
                {
                  "reference": "Practitioner/SpezialistMonney"
                }
              ],
              "title": "Medikationsplan",
              "confidentiality": "N",
              "_confidentiality": {
                "extension": [
                  {
                    "url": "http://fhir.ch/ig/ch-core/StructureDefinition/ch-ext-epr-confidentialitycode",
                    "valueCodeableConcept": {
                      "coding": [
                        {
                          "system": "http://snomed.info/sct",
                          "code": "17621005",
                          "display": "Normally accessible"
                        }
                      ]
                    }
                  }
                ]
              },
              "custodian": {
                "reference": "Organization/Spezialist"
              },
              "section": [
                {
                  "title": "Aktuelle Medikation",
                  "code": {
                    "coding": [
                      {
                        "system": "http://loinc.org",
                        "code": "10160-0",
                        "display": "History of medication use"
                      }
                    ]
                  },
                  "text": {
                    "status": "additional",
                    "div": "<div xmlns=\"http://www.w3.org/1999/xhtml\"> Aktuelle Medikation </div>"
                  },
                  "entry": [
                    {
                      "reference": "MedicationStatement/A5-MedStatExforge"
                    }
                  ]
                }
              ]
            }
          },
          {
            "fullUrl": "http://test.fhir.ch/r4/Patient/MonikaWegmueller",
            "resource": {
              "resourceType": "Patient",
              "id": "MonikaWegmueller",
              "identifier": [
                {
                  "type": {
                    "coding": [
                      {
                        "system": "http://terminology.hl7.org/CodeSystem/v2-0203",
                        "code": "MR"
                      }
                    ]
                  },
                  "system": "urn:oid:2.999",
                  "value": "11111111"
                }
              ],
              "name": [
                {
                  "family": "Wegmüller",
                  "given": [
                    "Monika"
                  ]
                }
              ],
              "gender": "female",
              "birthDate": "1943-05-15",
              "address": [
                {
                  "line": [
                    "Wiesenstr. 12"
                  ],
                  "city": "Zürich",
                  "postalCode": "8003",
                  "country": "CH"
                }
              ]
            }
          },
          {
            "fullUrl": "http://test.fhir.ch/r4/Practitioner/SpezialistMonney",
            "resource": {
              "resourceType": "Practitioner",
              "id": "SpezialistMonney",
              "identifier": [
                {
                  "system": "urn:oid:2.51.1.3",
                  "value": "7601000239933"
                }
              ],
              "name": [
                {
                  "family": "Monney",
                  "given": [
                    "Spezialist"
                  ]
                }
              ]
            }
          },
          {
            "fullUrl": "http://test.fhir.ch/r4/Organization/Spezialist",
            "resource": {
              "resourceType": "Organization",
              "id": "Spezialist",
              "identifier": [
                {
                  "system": "urn:oid:2.51.1.3",
                  "value": "7601000239933"
                }
              ],
              "name": "Spezialist"
            }
          },
          {
            "fullUrl": "http://test.fhir.ch/r4/Patient/MonikaWegmuellerRecipient",
            "resource": {
              "resourceType": "Patient",
              "id": "MonikaWegmuellerRecipient",
              "name": [
                {
                  "family": "Wegmüller",
                  "given": [
                    "Monika"
                  ]
                }
              ],
              "address": [
                {
                  "line": [
                    "Wiesenstr. 12"
                  ],
                  "city": "Zürich",
                  "postalCode": "8003",
                  "country": "CH"
                }
              ]
            }
          },
          {
            "fullUrl": "http://test.fhir.ch/r4/MedicationStatement/A5-MedStatExforge",
            "resource": {
              "resourceType": "MedicationStatement",
              "id": "A5-MedStatExforge",
              "contained": [
                {
                  "resourceType": "Medication",
                  "id": "cont1",
                  "code": {
                    "coding": [
                      {
                        "system": "urn:oid:2.51.1.1",
                        "code": "7680577710149",
                        "display": "Exforge 10/160mg"
                      }
                    ],
                    "text": "Exforge 10/160mg"
                  },
                  "form": {
                    "coding": [
                      {
                        "system": "urn:oid:0.4.0.127.0.16.1.1.2.1",
                        "code": "10219000",
                        "display": "Tablet"
                      }
                    ]
                  },
                  "amount": {
                    "numerator": {
                      "value": 28
                    },
                    "denominator": {
                      "value": 1
                    }
                  },
                  "ingredient": [
                    {
                      "itemCodeableConcept": {
                        "coding": [
                          {
                            "system": "http://snomed.info/sct",
                            "code": "386864001",
                            "display": "Amlodipine (substance)"
                          }
                        ]
                      },
                      "strength": {
                        "numerator": {
                          "value": 10,
                          "unit": "mg"
                        },
                        "denominator": {
                          "value": 1
                        }
                      }
                    },
                    {
                      "itemCodeableConcept": {
                        "coding": [
                          {
                            "system": "http://snomed.info/sct",
                            "code": "386876001",
                            "display": "Valsartan (substance)"
                          }
                        ]
                      },
                      "strength": {
                        "numerator": {
                          "value": 170,
                          "unit": "mg"
                        },
                        "denominator": {
                          "value": 1
                        }
                      }
                    }
                  ]
                }
              ],
              "status": "completed",
              "category": {
                "coding": [
                  {
                    "system": "http://www.whocc.no/atc",
                    "code": "C",
                    "display": "Kardiovaskuläres System"
                  }
                ]
              },
              "medicationReference": {
                "reference": "#cont1"
              },
              "subject": {
                "reference": "Patient/MonikaWegmueller"
              },
              "reasonCode": [
                {
                  "text": "Bluthochdruck"
                }
              ],
              "dosage": [
                {
                  "text": "1 Tablette morgens"
                },
                {
                  "timing": {
                    "repeat": {
                      "boundsPeriod": {
                        "start": "2020-03-23"
                      },
                      "when": [
                        "CM"
                      ]
                    }
                  },
                  "route": {
                    "coding": [
                      {
                        "system": "urn:oid:0.4.0.127.0.16.1.1.2.1",
                        "code": "20053000",
                        "display": "Oral use"
                      }
                    ]
                  },
                  "doseAndRate": [
                    {
                      "doseQuantity": {
                        "value": 1,
                        "unit": "Tablette",
                        "system": "http://unitsofmeasure.org",
                        "code": "1"
                      }
                    }
                  ]
                }
              ]
            }
          }
        ]
      }
    }
  ]
}