{
  "resourceType": "Parameters",
  "id": "BeloczokDIS-Input-Analyzer",
  "parameter": [
    {
      "name": "ch-emed-doc",
      "resource": {
        "resourceType": "Bundle",
        "id": "2-3-MedicationTreatmentPlan",
        "identifier": {
          "system": "urn:ietf:rfc:3986",
          "value": "urn:uuid:17931678-20b4-11e6-b67b-9e71128cca77"
        },
        "type": "document",
        "timestamp": "2012-02-04T14:00:00+01:00",
        "entry": [
          {
            "fullUrl": "http://test.fhir.ch/r4/Composition/2-3-MedicationTreatmentPlan",
            "resource": {
              "resourceType": "Composition",
              "id": "2-3-MedicationTreatmentPlan",
              "language": "de-CH",
              "extension": [
                {
                  "url": "http://chmed20af.emediplan.ch/fhir/StructureDefinition/chmed20af-inputdocumentsource",
                  "valueString": "EPD"
                },
                {
                  "url": "http://fhir.ch/ig/ch-core/StructureDefinition/ch-ext-epr-setid",
                  "valueIdentifier": {
                    "system": "urn:ietf:rfc:3986",
                    "value": "urn:uuid:17931678-20b4-11e6-b67b-9e71128cca77"
                  }
                },
                {
                  "url": "http://fhir.ch/ig/ch-core/StructureDefinition/ch-ext-epr-versionnumber",
                  "valueUnsignedInt": 1
                },
                {
                  "url": "http://fhir.ch/ig/ch-core/StructureDefinition/ch-ext-epr-informationrecipient",
                  "valueReference": {
                    "reference": "Patient/MonikaWegmuellerRecipient"
                  }
                }
              ],
              "identifier": {
                "system": "urn:ietf:rfc:3986",
                "value": "urn:uuid:17931678-20b4-11e6-b67b-9e71128cca77"
              },
              "status": "final",
              "type": {
                "coding": [
                  {
                    "system": "http://snomed.info/sct",
                    "code": "419891008",
                    "display": "Record artifact (record artifact)"
                  },
                  {
                    "system": "http://loinc.org",
                    "code": "77603-9",
                    "display": "Medication treatment plan.extended"
                  }
                ]
              },
              "subject": {
                "reference": "Patient/MonikaWegmueller"
              },
              "date": "2012-02-04T14:00:00+01:00",
              "author": [
                {
                  "extension": [
                    {
                      "url": "http://fhir.ch/ig/ch-core/StructureDefinition/ch-ext-epr-time",
                      "valueDateTime": "2012-02-04T14:00:00+01:00"
                    }
                  ],
                  "reference": "Practitioner/FamilienHausarzt"
                },
                {
                  "reference": "Organization/Hausarzt"
                }
              ],
              "title": "Therapieentscheid Medikation",
              "confidentiality": "N",
              "_confidentiality": {
                "extension": [
                  {
                    "url": "http://fhir.ch/ig/ch-core/StructureDefinition/ch-ext-epr-confidentialitycode",
                    "valueCodeableConcept": {
                      "coding": [
                        {
                          "system": "http://snomed.info/sct",
                          "code": "17621005",
                          "display": "Normally accessible"
                        }
                      ]
                    }
                  }
                ]
              },
              "custodian": {
                "reference": "Organization/Custodian"
              },
              "section": [
                {
                  "extension": [
                    {
                      "url": "http://fhir.ch/ig/ch-core/StructureDefinition/ch-ext-epr-sectionid",
                      "valueIdentifier": {
                        "system": "urn:ietf:rfc:3986",
                        "value": "urn:uuid:17931678-20b4-11e6-b67b-9e71128cca77"
                      }
                    }
                  ],
                  "title": "Medikamentöser Behandlungsplan",
                  "code": {
                    "coding": [
                      {
                        "system": "http://loinc.org",
                        "code": "77604-7",
                        "display": "Medication treatment plan.brief"
                      }
                    ]
                  },
                  "text": {
                    "status": "generated",
                    "div": "<div xmlns=\"http://www.w3.org/1999/xhtml\">\n                                        <table>\n                                            <thead>\n                                                <tr>\n                                                    <th>Präpartename</th>\n                                                    <th>Wirkstoffname</th>\n                                                    <th>Galenische Form</th>\n                                                    <th>Dosis pro Einheit</th>\n                                                    <th>Dosierung</th>\n                                                    <th>Dos.Morgen</th>\n                                                    <th>Dos.Mittag</th>\n                                                    <th>Dos.Abend</th>\n                                                    <th>Dos.Nacht</th>\n                                                    <th>Verabreichungsweg</th>\n                                                    <th>Kommentar</th>\n                                                    <th>Anwendungsdauer</th>\n                                                    <th>Behandlungsgrund</th>\n                                                </tr>\n                                            </thead>\n                                            <tbody>\n                                                <tr id=\"mtp.1\">\n                                                    <td id=\"mtp.1.brandedmedication\">Beloc Zok</td>\n                                                    <td id=\"mtp.1.ingredient\">Metoprolol</td>\n                                                    <td id=\"mtp.1.packageform\"> Ret Tbl</td>\n                                                    <td id=\"mtp.1.dosequantity\">2.5 mg</td>\n                                                    <td id=\"mtp.1.dosageintakemode\">Morgens 1 und abends 1/2 Tablette nehmen</td>\n                                                    <td id=\"mtp.1.dosagemorning\">1</td>\n                                                    <td id=\"mtp.1.dosagelunch\">0</td>\n                                                    <td id=\"mtp.1.dosageevening\">0.5</td>\n                                                    <td id=\"mtp.1.dosagenight\">0</td>\n                                                    <td id=\"mtp.1.routecode\">oral</td>\n                                                    <td id=\"mtp.1.note\"/>\n                                                    <td id=\"mtp.1.datefromto\"/>\n                                                    <td id=\"mtp.1.reason\">Bluthochdruck</td>\n                                                </tr>\n                                            </tbody>\n                                        </table>\n                                    </div>"
                  },
                  "entry": [
                    {
                      "reference": "MedicationStatement/2-3-MedStatBeloczok"
                    }
                  ]
                }
              ]
            }
          },
          {
            "fullUrl": "http://test.fhir.ch/r4/Patient/MonikaWegmueller",
            "resource": {
              "resourceType": "Patient",
              "id": "MonikaWegmueller",
              "identifier": [
                {
                  "type": {
                    "coding": [
                      {
                        "system": "http://terminology.hl7.org/CodeSystem/v2-0203",
                        "code": "MR"
                      }
                    ]
                  },
                  "system": "urn:oid:2.999",
                  "value": "11111111"
                }
              ],
              "name": [
                {
                  "family": "Wegmüller",
                  "given": [
                    "Monika"
                  ]
                }
              ],
              "gender": "female",
              "birthDate": "1943-05-15",
              "address": [
                {
                  "line": [
                    "Wiesenstr. 12"
                  ],
                  "city": "Zürich",
                  "postalCode": "8003",
                  "country": "CH"
                }
              ]
            }
          },
          {
            "fullUrl": "http://test.fhir.ch/r4/Practitioner/FamilienHausarzt",
            "resource": {
              "resourceType": "Practitioner",
              "id": "FamilienHausarzt",
              "identifier": [
                {
                  "system": "urn:oid:2.51.1.3",
                  "value": "7601000234438"
                }
              ],
              "name": [
                {
                  "family": "Hausarzt",
                  "given": [
                    "Familien"
                  ]
                }
              ]
            }
          },
          {
            "fullUrl": "http://test.fhir.ch/r4/Organization/Hausarzt",
            "resource": {
              "resourceType": "Organization",
              "id": "Hausarzt",
              "identifier": [
                {
                  "system": "urn:oid:2.51.1.3",
                  "value": "7601000234438"
                }
              ],
              "name": "Hausarzt",
              "telecom": [
                {
                  "extension": [
                    {
                      "url": "http://hl7.org/fhir/StructureDefinition/iso21090-nullFlavor",
                      "valueCode": "NI"
                    }
                  ]
                }
              ],
              "address": [
                {
                  "line": [
                    "Krankenstrasse 2"
                  ],
                  "city": "Zürich",
                  "postalCode": "8005",
                  "country": "CH"
                }
              ]
            }
          },
          {
            "fullUrl": "http://test.fhir.ch/r4/Organization/Custodian",
            "resource": {
              "resourceType": "Organization",
              "id": "Custodian",
              "identifier": [
                {
                  "system": "urn:oid:2.51.1.3",
                  "value": "7601000234438"
                }
              ],
              "name": "Hausarzt"
            }
          },
          {
            "fullUrl": "http://test.fhir.ch/r4/Patient/MonikaWegmuellerRecipient",
            "resource": {
              "resourceType": "Patient",
              "id": "MonikaWegmuellerRecipient",
              "name": [
                {
                  "family": "Wegmüller",
                  "given": [
                    "Monika"
                  ]
                }
              ],
              "address": [
                {
                  "line": [
                    "Wiesenstr. 12"
                  ],
                  "city": "Zürich",
                  "postalCode": "8003",
                  "country": "CH"
                }
              ]
            }
          },
          {
            "fullUrl": "http://test.fhir.ch/r4/MedicationStatement/2-3-MedStatBeloczok",
            "resource": {
              "resourceType": "MedicationStatement",
              "id": "2-3-MedStatBeloczok",
              "contained": [
                {
                  "resourceType": "Medication",
                  "id": "med",
                  "code": {
                    "extension": [
                      {
                        "url": "http://hl7.org/fhir/StructureDefinition/narrativeLink",
                        "valueUrl": "#mtp.1.brandedmedication"
                      }
                    ],
                    "coding": [
                      {
                        "system": "urn:oid:2.51.1.1",
                        "code": "7680521101306",
                        "display": "BELOC ZOK Ret Tabl 50 mg 30 Stk"
                      }
                    ],
                    "text": "BELOC ZOK Ret Tabl 50 mg"
                  },
                  "form": {
                    "coding": [
                      {
                        "system": "urn:oid:0.4.0.127.0.16.1.1.2.1",
                        "code": "10219000",
                        "display": "Tablet"
                      }
                    ]
                  },
                  "amount": {
                    "numerator": {
                      "value": 30
                    },
                    "denominator": {
                      "value": 1
                    }
                  },
                  "ingredient": [
                    {
                      "itemCodeableConcept": {
                        "coding": [
                          {
                            "system": "http://snomed.info/sct",
                            "code": "372826007",
                            "display": "Metoprolol (substance)"
                          }
                        ],
                        "text": "Metoprolol"
                      },
                      "strength": {
                        "numerator": {
                          "value": 50,
                          "unit": "mg"
                        },
                        "denominator": {
                          "value": 1
                        }
                      }
                    }
                  ]
                }
              ],
              "extension": [
                {
                  "url": "http://hl7.org/fhir/StructureDefinition/narrativeLink",
                  "valueUrl": "#mtp.1"
                }
              ],
              "identifier": [
                {
                  "system": "urn:ietf:rfc:3986",
                  "value": "urn:uuid:17931678-20b4-11e6-b67b-9e71128cca77"
                }
              ],
              "status": "completed",
              "medicationReference": {
                "reference": "#med"
              },
              "subject": {
                "reference": "Patient/MonikaWegmueller"
              },
              "reasonCode": [
                {
                  "extension": [
                    {
                      "url": "http://hl7.org/fhir/StructureDefinition/narrativeLink",
                      "valueUrl": "#mtp.1.reason"
                    }
                  ],
                  "text": "Bluthochdruck"
                }
              ],
              "note": [
                {
                  "extension": [
                    {
                      "url": "http://hl7.org/fhir/StructureDefinition/narrativeLink",
                      "valueUrl": "#mtp.1.note"
                    }
                  ],
                  "text": "-"
                }
              ],
              "dosage": [
                {
                  "extension": [
                    {
                      "url": "http://hl7.org/fhir/StructureDefinition/narrativeLink",
                      "valueUrl": "#mtp.1.dosageintakemode"
                    }
                  ],
                  "text": "Morgens 1 und abends 1/2 Tablette nehmen"
                },
                {
                  "extension": [
                    {
                      "url": "http://fhir.ch/ig/ch-emed/StructureDefinition/ch-emed-ext-dosagetype",
                      "valueIdentifier": {
                        "value": "1.3.6.1.4.1.19376.1.5.3.1.4.9"
                      }
                    }
                  ],
                  "sequence": 1,
                  "timing": {
                    "repeat": {
                      "boundsPeriod": {
                        "start": "2012-02-04"
                      },
                      "when": [
                        "ACM"
                      ]
                    }
                  },
                  "route": {
                    "coding": [
                      {
                        "system": "urn:oid:0.4.0.127.0.16.1.1.2.1",
                        "code": "20053000",
                        "display": "Oral use"
                      }
                    ]
                  },
                  "doseAndRate": [
                    {
                      "doseQuantity": {
                        "value": 1
                      }
                    }
                  ]
                },
                {
                  "extension": [
                    {
                      "url": "http://fhir.ch/ig/ch-emed/StructureDefinition/ch-emed-ext-dosagetype",
                      "valueIdentifier": {
                        "value": "1.3.6.1.4.1.19376.1.5.3.1.4.9"
                      }
                    }
                  ],
                  "sequence": 2,
                  "timing": {
                    "repeat": {
                      "boundsPeriod": {
                        "start": "2012-02-04"
                      },
                      "when": [
                        "ACV"
                      ]
                    }
                  },
                  "route": {
                    "coding": [
                      {
                        "system": "urn:oid:0.4.0.127.0.16.1.1.2.1",
                        "code": "20053000",
                        "display": "Oral use"
                      }
                    ]
                  },
                  "doseAndRate": [
                    {
                      "doseQuantity": {
                        "value": 0.5
                      }
                    }
                  ]
                }
              ]
            }
          }
        ]
      }
    },
    {
      "name": "ch-emed-doc",
      "resource": {
        "resourceType": "Bundle",
        "id": "2-4-MedicationDispense",
        "identifier": {
          "system": "urn:ietf:rfc:3986",
          "value": "urn:uuid:d8143fea-4778-11e6-beb8-9e71128cae77"
        },
        "type": "document",
        "timestamp": "2012-02-04T14:00:00+01:00",
        "entry": [
          {
            "fullUrl": "http://test.fhir.ch/r4/Composition/2-4-MedicationDispense",
            "resource": {
              "resourceType": "Composition",
              "id": "2-4-MedicationDispense",
              "language": "de-CH",
              "extension": [
                {
                  "url": "http://chmed20af.emediplan.ch/fhir/StructureDefinition/chmed20af-inputdocumentsource",
                  "valueString": "EPD"
                },
                {
                  "url": "http://fhir.ch/ig/ch-core/StructureDefinition/ch-ext-epr-setid",
                  "valueIdentifier": {
                    "system": "urn:ietf:rfc:3986",
                    "value": "urn:uuid:d8143fea-4778-11e6-beb8-9e71128cae77"
                  }
                },
                {
                  "url": "http://fhir.ch/ig/ch-core/StructureDefinition/ch-ext-epr-versionnumber",
                  "valueUnsignedInt": 1
                },
                {
                  "url": "http://fhir.ch/ig/ch-core/StructureDefinition/ch-ext-epr-informationrecipient",
                  "valueReference": {
                    "reference": "Patient/MonikaWegmuellerRecipient"
                  }
                }
              ],
              "identifier": {
                "system": "urn:ietf:rfc:3986",
                "value": "urn:uuid:d8143fea-4778-11e6-beb8-9e71128cae77"
              },
              "status": "final",
              "type": {
                "coding": [
                  {
                    "system": "http://snomed.info/sct",
                    "code": "419891008",
                    "display": "Record artifact (record artifact)"
                  },
                  {
                    "system": "http://loinc.org",
                    "code": "60593-1",
                    "display": "Medication dispensed.extended"
                  }
                ]
              },
              "subject": {
                "reference": "Patient/MonikaWegmueller"
              },
              "date": "2012-02-04T14:00:00+01:00",
              "author": [
                {
                  "extension": [
                    {
                      "url": "http://fhir.ch/ig/ch-core/StructureDefinition/ch-ext-epr-time",
                      "valueDateTime": "2012-02-04T14:00:00+01:00"
                    }
                  ],
                  "reference": "Practitioner/FamilienHausarzt"
                },
                {
                  "reference": "Organization/Hausarzt"
                }
              ],
              "title": "Abgabe",
              "confidentiality": "N",
              "_confidentiality": {
                "extension": [
                  {
                    "url": "http://fhir.ch/ig/ch-core/StructureDefinition/ch-ext-epr-confidentialitycode",
                    "valueCodeableConcept": {
                      "coding": [
                        {
                          "system": "http://snomed.info/sct",
                          "code": "17621005",
                          "display": "Normally accessible"
                        }
                      ]
                    }
                  }
                ]
              },
              "custodian": {
                "reference": "Organization/Custodian"
              },
              "section": [
                {
                  "extension": [
                    {
                      "url": "http://fhir.ch/ig/ch-core/StructureDefinition/ch-ext-epr-sectionid",
                      "valueIdentifier": {
                        "system": "urn:ietf:rfc:3986",
                        "value": "urn:uuid:d8143fea-4778-11e6-beb8-9e71128cae77"
                      }
                    }
                  ],
                  "title": "Abgabe eines Medikaments",
                  "code": {
                    "coding": [
                      {
                        "system": "http://loinc.org",
                        "code": "60590-7",
                        "display": "Medication dispensed.brief"
                      }
                    ]
                  },
                  "text": {
                    "status": "generated",
                    "div": "<div xmlns=\"http://www.w3.org/1999/xhtml\">\n                                        <table>\n                                            <thead>\n                                                <tr>\n                                                    <th>Präpartename</th>\n                                                    <th>Wirkstoffname</th>\n                                                    <th>Galenische Form</th>\n                                                    <th>Dosis pro Einheit</th>\n                                                    <th>Anzahl Packungen</th>\n                                                    <th>Packungsgrösse</th>\n                                                    <th>Dosierung</th>\n                                                    <th>Dos.Morgen</th>\n                                                    <th>Dos.Mittag</th>\n                                                    <th>Dos.Abend</th>\n                                                    <th>Dos.Nacht</th>\n                                                    <th>Verabreichungsweg</th>\n                                                    <th>Kommentar</th>\n                                                    <th>Behandlungsrund</th>\n                                                    <th>Datum/Zeit der Abgabe/ Anwendung</th>\n                                                    <th>Identifikation des Empfängers</th>\n                                                </tr>\n                                            </thead>\n                                            <tbody>\n                                                <tr id=\"dis.1\">\n                                                    <td id=\"dis.1.brandedmedication\">Beloc Zok</td>\n                                                    <td id=\"dis.1.ingredient\">Metoprolol</td>\n                                                    <td id=\"dis.1.packageform\">Ret Tbl</td>\n                                                    <td id=\"dis.1.dosequantity\">50 mg</td>\n                                                    <td id=\"dis.1.nopackages\">1</td>\n                                                    <td id=\"dis.1.packagesize\">30 Stk</td>\n                                                    <td id=\"dis.1.dosageintakemode\">Morgens 1 und abends 1/2 Tablette nehmen</td>\n                                                    <td id=\"dis.1.dosagemorning\">1</td>\n                                                    <td id=\"dis.1.dosagelunch\">0</td>\n                                                    <td id=\"dis.1.dosageevening\">0.5</td>\n                                                    <td id=\"dis.1.routecode\">oral</td>\n                                                    <td id=\"dis.1.note\"/>\n                                                    <td id=\"dis.1.datefromto\"/>\n                                                    <td id=\"dis.1.reason\">Bluthochdruck</td>\n                                                    <td id=\"dis.1.dipsensedate\"/>\n                                                    <td id=\"dis.1.dipsenseto\"/>\n                                                </tr>\n                                            </tbody>\n                                        </table>\n                                    </div>"
                  },
                  "entry": [
                    {
                      "reference": "MedicationDispense/2-4-MedDispBeloczok"
                    }
                  ]
                }
              ]
            }
          },
          {
            "fullUrl": "http://test.fhir.ch/r4/Patient/MonikaWegmueller",
            "resource": {
              "resourceType": "Patient",
              "id": "MonikaWegmueller",
              "identifier": [
                {
                  "type": {
                    "coding": [
                      {
                        "system": "http://terminology.hl7.org/CodeSystem/v2-0203",
                        "code": "MR"
                      }
                    ]
                  },
                  "system": "urn:oid:2.999",
                  "value": "11111111"
                }
              ],
              "name": [
                {
                  "family": "Wegmüller",
                  "given": [
                    "Monika"
                  ]
                }
              ],
              "gender": "female",
              "birthDate": "1943-05-15",
              "address": [
                {
                  "line": [
                    "Wiesenstr. 12"
                  ],
                  "city": "Zürich",
                  "postalCode": "8003",
                  "country": "CH"
                }
              ]
            }
          },
          {
            "fullUrl": "http://test.fhir.ch/r4/Practitioner/FamilienHausarzt",
            "resource": {
              "resourceType": "Practitioner",
              "id": "FamilienHausarzt",
              "identifier": [
                {
                  "system": "urn:oid:2.51.1.3",
                  "value": "7601000234438"
                }
              ],
              "name": [
                {
                  "family": "Hausarzt",
                  "given": [
                    "Familien"
                  ]
                }
              ]
            }
          },
          {
            "fullUrl": "http://test.fhir.ch/r4/Organization/Hausarzt",
            "resource": {
              "resourceType": "Organization",
              "id": "Hausarzt",
              "identifier": [
                {
                  "system": "urn:oid:2.51.1.3",
                  "value": "7601000234438"
                }
              ],
              "name": "Hausarzt",
              "telecom": [
                {
                  "extension": [
                    {
                      "url": "http://hl7.org/fhir/StructureDefinition/iso21090-nullFlavor",
                      "valueCode": "NI"
                    }
                  ]
                }
              ],
              "address": [
                {
                  "line": [
                    "Krankenstrasse 2"
                  ],
                  "city": "Zürich",
                  "postalCode": "8005",
                  "country": "CH"
                }
              ]
            }
          },
          {
            "fullUrl": "http://test.fhir.ch/r4/Organization/Custodian",
            "resource": {
              "resourceType": "Organization",
              "id": "Custodian",
              "identifier": [
                {
                  "system": "urn:oid:2.51.1.3",
                  "value": "7601000234438"
                }
              ],
              "name": "Hausarzt"
            }
          },
          {
            "fullUrl": "http://test.fhir.ch/r4/Patient/MonikaWegmuellerRecipient",
            "resource": {
              "resourceType": "Patient",
              "id": "MonikaWegmuellerRecipient",
              "name": [
                {
                  "family": "Wegmüller",
                  "given": [
                    "Monika"
                  ]
                }
              ],
              "address": [
                {
                  "line": [
                    "Wiesenstr. 12"
                  ],
                  "city": "Zürich",
                  "postalCode": "8003",
                  "country": "CH"
                }
              ]
            }
          },
          {
            "fullUrl": "http://test.fhir.ch/r4/MedicationDispense/2-4-MedDispBeloczok",
            "resource": {
              "resourceType": "MedicationDispense",
              "id": "2-4-MedDispBeloczok",
              "contained": [
                {
                  "resourceType": "Medication",
                  "id": "med",
                  "code": {
                    "extension": [
                      {
                        "url": "http://hl7.org/fhir/StructureDefinition/narrativeLink",
                        "valueUrl": "#dis.1.brandedmedication"
                      }
                    ],
                    "coding": [
                      {
                        "system": "urn:oid:2.51.1.1",
                        "code": "7680521101306",
                        "display": "BELOC ZOK Ret Tabl 50 mg 30 Stk"
                      }
                    ],
                    "text": "BELOC ZOK Ret Tabl 50 mg"
                  },
                  "form": {
                    "coding": [
                      {
                        "system": "urn:oid:0.4.0.127.0.16.1.1.2.1",
                        "code": "10219000",
                        "display": "Tablet"
                      }
                    ]
                  },
                  "amount": {
                    "numerator": {
                      "value": 30
                    },
                    "denominator": {
                      "value": 1
                    }
                  },
                  "ingredient": [
                    {
                      "itemCodeableConcept": {
                        "coding": [
                          {
                            "system": "http://snomed.info/sct",
                            "code": "372826007",
                            "display": "Metoprolol (substance)"
                          }
                        ],
                        "text": "Metoprolol"
                      },
                      "strength": {
                        "numerator": {
                          "value": 50,
                          "unit": "mg"
                        },
                        "denominator": {
                          "value": 1
                        }
                      }
                    }
                  ]
                }
              ],
              "extension": [
                {
                  "url": "http://hl7.org/fhir/StructureDefinition/narrativeLink",
                  "valueUrl": "#dis.1"
                },
                {
                  "url": "http://fhir.ch/ig/ch-emed/StructureDefinition/ch-emed-ext-treatmentplan",
                  "extension": [
                    {
                      "url": "id",
                      "valueIdentifier": {
                        "system": "urn:ietf:rfc:3986",
                        "value": "urn:uuid:17931678-20b4-11e6-b67b-9e71128cca77"
                      }
                    },
                    {
                      "url": "externalDocumentId",
                      "valueIdentifier": {
                        "system": "urn:ietf:rfc:3986",
                        "value": "urn:uuid:17931678-20b4-11e6-b67b-9e71128cca77"
                      }
                    }
                  ]
                }
              ],
              "identifier": [
                {
                  "system": "urn:ietf:rfc:3986",
                  "value": "urn:uuid:d8143fea-4778-11e6-beb8-9e71128cae77"
                }
              ],
              "status": "completed",
              "medicationReference": {
                "reference": "#med"
              },
              "subject": {
                "reference": "Patient/MonikaWegmueller"
              },
              "quantity": {
                "value": 1
              },
              "note": [
                {
                  "extension": [
                    {
                      "url": "http://hl7.org/fhir/StructureDefinition/narrativeLink",
                      "valueUrl": "#dis.1.note"
                    }
                  ],
                  "text": "-"
                }
              ],
              "dosageInstruction": [
                {
                  "extension": [
                    {
                      "url": "http://hl7.org/fhir/StructureDefinition/narrativeLink",
                      "valueUrl": "#dis.1.dosageintakemode"
                    }
                  ],
                  "text": "Morgens 1 und abends 1/2 Tablette nehmen"
                },
                {
                  "extension": [
                    {
                      "url": "http://fhir.ch/ig/ch-emed/StructureDefinition/ch-emed-ext-dosagetype",
                      "valueIdentifier": {
                        "value": "1.3.6.1.4.1.19376.1.5.3.1.4.9"
                      }
                    }
                  ],
                  "sequence": 1,
                  "timing": {
                    "repeat": {
                      "boundsPeriod": {
                        "start": "2012-02-04"
                      },
                      "when": [
                        "ACM"
                      ]
                    }
                  },
                  "route": {
                    "coding": [
                      {
                        "system": "urn:oid:0.4.0.127.0.16.1.1.2.1",
                        "code": "20053000",
                        "display": "Oral use"
                      }
                    ]
                  },
                  "doseAndRate": [
                    {
                      "doseQuantity": {
                        "value": 1
                      }
                    }
                  ]
                },
                {
                  "extension": [
                    {
                      "url": "http://fhir.ch/ig/ch-emed/StructureDefinition/ch-emed-ext-dosagetype",
                      "valueIdentifier": {
                        "value": "1.3.6.1.4.1.19376.1.5.3.1.4.9"
                      }
                    }
                  ],
                  "sequence": 2,
                  "timing": {
                    "repeat": {
                      "boundsPeriod": {
                        "start": "2012-02-04"
                      },
                      "when": [
                        "ACV"
                      ]
                    }
                  },
                  "route": {
                    "coding": [
                      {
                        "system": "urn:oid:0.4.0.127.0.16.1.1.2.1",
                        "code": "20053000",
                        "display": "Oral use"
                      }
                    ]
                  },
                  "doseAndRate": [
                    {
                      "doseQuantity": {
                        "value": 0.5
                      }
                    }
                  ]
                }
              ],
              "substitution": {
                "wasSubstituted": true,
                "type": {
                  "coding": [
                    {
                      "system": "http://terminology.hl7.org/CodeSystem/v3-substanceAdminSubstitution",
                      "code": "E",
                      "display": "equivalent"
                    }
                  ]
                }
              }
            }
          }
        ]
      }
    }
  ]
}