{
  "resourceType": "Parameters",
  "id": "A6-Input-Analyzer",
  "parameter": [
    {
      "name": "ch-emed-doc",
      "resource": {
        "resourceType": "Bundle",
        "id": "A6-MedicationCard-Tbl",
        "identifier": {
          "system": "http://emediplan.ch/chmed20af/id",
          "value": "26d3dff7-ab05-4737-a49c-5eccd3359a6a"
        },
        "type": "document",
        "timestamp": "2020-02-05T09:00:00+01:00",
        "entry": [
          {
            "fullUrl": "http://test.fhir.ch/r4/Composition/A6-CompImigran-Tbl",
            "resource": {
              "resourceType": "Composition",
              "id": "A6-CompImigran-Tbl",
              "language": "de-CH",
              "extension": [
                {
                  "url": "http://chmed20af.emediplan.ch/fhir/StructureDefinition/chmed20af-inputdocumentsource",
                  "valueString": "Cara"
                },
                {
                  "url": "http://fhir.ch/ig/ch-core/StructureDefinition/ch-ext-epr-setid",
                  "valueIdentifier": {
                    "system": "http://emediplan.ch/chmed20af/id",
                    "value": "26d3dff7-ab05-4737-a49c-5eccd3359a6a"
                  }
                },
                {
                  "url": "http://fhir.ch/ig/ch-core/StructureDefinition/ch-ext-epr-versionnumber",
                  "valueUnsignedInt": 1
                },
                {
                  "url": "http://fhir.ch/ig/ch-core/StructureDefinition/ch-ext-epr-informationrecipient",
                  "valueReference": {
                    "reference": "Patient/MonikaWegmuellerRecipient"
                  }
                }
              ],
              "identifier": {
                "system": "http://emediplan.ch/chmed20af/id",
                "value": "26d3dff7-ab05-4737-a49c-5eccd3359a6a"
              },
              "status": "final",
              "type": {
                "coding": [
                  {
                    "system": "http://snomed.info/sct",
                    "code": "721912009",
                    "display": "Medication summary document (record artifact)"
                  }
                ]
              },
              "subject": {
                "reference": "Patient/MonikaWegmueller"
              },
              "date": "2020-02-05T09:00:00+01:00",
              "author": [
                {
                  "reference": "Practitioner/SpezialistMetzler"
                }
              ],
              "title": "Medikationsplan",
              "confidentiality": "N",
              "_confidentiality": {
                "extension": [
                  {
                    "url": "http://fhir.ch/ig/ch-core/StructureDefinition/ch-ext-epr-confidentialitycode",
                    "valueCodeableConcept": {
                      "coding": [
                        {
                          "system": "http://snomed.info/sct",
                          "code": "17621005",
                          "display": "Normally accessible"
                        }
                      ]
                    }
                  }
                ]
              },
              "custodian": {
                "reference": "Organization/SpezialistNeuro"
              },
              "section": [
                {
                  "title": "Aktuelle Medikation",
                  "code": {
                    "coding": [
                      {
                        "system": "http://loinc.org",
                        "code": "10160-0",
                        "display": "History of medication use"
                      }
                    ]
                  },
                  "text": {
                    "status": "additional",
                    "div": "<div xmlns=\"http://www.w3.org/1999/xhtml\"> Aktuelle Medikation </div>"
                  },
                  "entry": [
                    {
                      "reference": "MedicationStatement/A6-MedStatImigran-Tbl"
                    }
                  ]
                }
              ]
            }
          },
          {
            "fullUrl": "http://test.fhir.ch/r4/Patient/MonikaWegmueller",
            "resource": {
              "resourceType": "Patient",
              "id": "MonikaWegmueller",
              "identifier": [
                {
                  "type": {
                    "coding": [
                      {
                        "system": "http://terminology.hl7.org/CodeSystem/v2-0203",
                        "code": "MR"
                      }
                    ]
                  },
                  "system": "urn:oid:2.999",
                  "value": "11111111"
                }
              ],
              "name": [
                {
                  "family": "Wegmüller",
                  "given": [
                    "Monika"
                  ]
                }
              ],
              "gender": "female",
              "birthDate": "1943-05-15",
              "address": [
                {
                  "line": [
                    "Wiesenstr. 12"
                  ],
                  "city": "Zürich",
                  "postalCode": "8003",
                  "country": "CH"
                }
              ]
            }
          },
          {
            "fullUrl": "http://test.fhir.ch/r4/Practitioner/SpezialistMetzler",
            "resource": {
              "resourceType": "Practitioner",
              "id": "SpezialistMetzler",
              "identifier": [
                {
                  "system": "urn:oid:2.51.1.3",
                  "value": "7601000232255"
                }
              ],
              "name": [
                {
                  "family": "Metzler",
                  "given": [
                    "Spezialist"
                  ]
                }
              ]
            }
          },
          {
            "fullUrl": "http://test.fhir.ch/r4/Organization/SpezialistNeuro",
            "resource": {
              "resourceType": "Organization",
              "id": "SpezialistNeuro",
              "identifier": [
                {
                  "system": "urn:oid:2.51.1.3",
                  "value": "7601000232255"
                }
              ],
              "name": "Spezialist Neuro"
            }
          },
          {
            "fullUrl": "http://test.fhir.ch/r4/Patient/MonikaWegmuellerRecipient",
            "resource": {
              "resourceType": "Patient",
              "id": "MonikaWegmuellerRecipient",
              "name": [
                {
                  "family": "Wegmüller",
                  "given": [
                    "Monika"
                  ]
                }
              ],
              "address": [
                {
                  "line": [
                    "Wiesenstr. 12"
                  ],
                  "city": "Zürich",
                  "postalCode": "8003",
                  "country": "CH"
                }
              ]
            }
          },
          {
            "fullUrl": "http://test.fhir.ch/r4/MedicationStatement/A6-MedStatImigran-Tbl",
            "resource": {
              "resourceType": "MedicationStatement",
              "id": "A6-MedStatImigran-Tbl",
              "contained": [
                {
                  "resourceType": "Medication",
                  "id": "cont1",
                  "code": {
                    "coding": [
                      {
                        "system": "urn:oid:2.51.1.1",
                        "code": "7680516850592",
                        "display": "IMIGRAN 50 mg Filmtabl"
                      }
                    ],
                    "text": "IMIGRAN 50 mg Filmtabl"
                  },
                  "form": {
                    "coding": [
                      {
                        "system": "urn:oid:0.4.0.127.0.16.1.1.2.1",
                        "code": "10221000",
                        "display": "Film-coated tablet"
                      }
                    ]
                  },
                  "amount": {
                    "numerator": {
                      "value": 12
                    },
                    "denominator": {
                      "value": 1
                    }
                  },
                  "ingredient": [
                    {
                      "itemCodeableConcept": {
                        "coding": [
                          {
                            "system": "http://snomed.info/sct",
                            "code": "395892000",
                            "display": "Sumatriptan (substance)"
                          }
                        ]
                      },
                      "strength": {
                        "numerator": {
                          "value": 50,
                          "unit": "mg"
                        },
                        "denominator": {
                          "value": 1
                        }
                      }
                    }
                  ]
                }
              ],
              "status": "completed",
              "category": {
                "coding": [
                  {
                    "system": "http://www.whocc.no/atc",
                    "code": "N",
                    "display": "Nervensystem"
                  }
                ]
              },
              "medicationReference": {
                "reference": "#cont1"
              },
              "subject": {
                "reference": "Patient/MonikaWegmueller"
              },
              "reasonCode": [
                {
                  "text": "Migräne"
                }
              ],
              "dosage": [
                {
                  "text": "2 Tabletten morgens"
                },
                {
                  "timing": {
                    "repeat": {
                      "boundsPeriod": {
                        "start": "2020-02-05"
                      },
                      "when": [
                        "CM"
                      ]
                    }
                  },
                  "route": {
                    "coding": [
                      {
                        "system": "urn:oid:0.4.0.127.0.16.1.1.2.1",
                        "code": "20053000",
                        "display": "Oral use"
                      }
                    ]
                  },
                  "doseAndRate": [
                    {
                      "doseQuantity": {
                        "value": 2,
                        "unit": "Tablette",
                        "system": "http://unitsofmeasure.org",
                        "code": "1"
                      }
                    }
                  ]
                }
              ]
            }
          }
        ]
      }
    },
    {
      "name": "ch-emed-doc",
      "resource": {
        "resourceType": "Bundle",
        "id": "A6-MedicationCard-TblSpray",
        "identifier": {
          "system": "http://emediplan.ch/chmed20af/id",
          "value": "26d3dff7-ab05-4737-a49c-5eccd3359a6b"
        },
        "type": "document",
        "timestamp": "2020-03-01T10:30:00+01:00",
        "entry": [
          {
            "fullUrl": "http://test.fhir.ch/r4/Composition/A6-CompImigran-TblSpray",
            "resource": {
              "resourceType": "Composition",
              "id": "A6-CompImigran-TblSpray",
              "language": "de-CH",
              "extension": [
                {
                  "url": "http://chmed20af.emediplan.ch/fhir/StructureDefinition/chmed20af-inputdocumentsource",
                  "valueString": "Cara"
                },
                {
                  "url": "http://fhir.ch/ig/ch-core/StructureDefinition/ch-ext-epr-setid",
                  "valueIdentifier": {
                    "system": "http://emediplan.ch/chmed20af/id",
                    "value": "26d3dff7-ab05-4737-a49c-5eccd3359a6b"
                  }
                },
                {
                  "url": "http://fhir.ch/ig/ch-core/StructureDefinition/ch-ext-epr-versionnumber",
                  "valueUnsignedInt": 1
                },
                {
                  "url": "http://fhir.ch/ig/ch-core/StructureDefinition/ch-ext-epr-informationrecipient",
                  "valueReference": {
                    "reference": "Patient/MonikaWegmuellerRecipient"
                  }
                }
              ],
              "identifier": {
                "system": "http://emediplan.ch/chmed20af/id",
                "value": "26d3dff7-ab05-4737-a49c-5eccd3359a6b"
              },
              "status": "final",
              "type": {
                "coding": [
                  {
                    "system": "http://snomed.info/sct",
                    "code": "721912009",
                    "display": "Medication summary document (record artifact)"
                  }
                ]
              },
              "subject": {
                "reference": "Patient/MonikaWegmueller"
              },
              "date": "2020-03-01T10:30:00+01:00",
              "author": [
                {
                  "reference": "Practitioner/SpezialistMetzler"
                }
              ],
              "title": "Medikationsplan",
              "confidentiality": "N",
              "_confidentiality": {
                "extension": [
                  {
                    "url": "http://fhir.ch/ig/ch-core/StructureDefinition/ch-ext-epr-confidentialitycode",
                    "valueCodeableConcept": {
                      "coding": [
                        {
                          "system": "http://snomed.info/sct",
                          "code": "17621005",
                          "display": "Normally accessible"
                        }
                      ]
                    }
                  }
                ]
              },
              "custodian": {
                "reference": "Organization/SpezialistNeuro"
              },
              "section": [
                {
                  "title": "Aktuelle Medikation",
                  "code": {
                    "coding": [
                      {
                        "system": "http://loinc.org",
                        "code": "10160-0",
                        "display": "History of medication use"
                      }
                    ]
                  },
                  "text": {
                    "status": "additional",
                    "div": "<div xmlns=\"http://www.w3.org/1999/xhtml\"> Aktuelle Medikation </div>"
                  },
                  "entry": [
                    {
                      "reference": "MedicationStatement/A6-MedStatImigran-Tbl"
                    },
                    {
                      "reference": "MedicationStatement/A6-MedStatImigran-Spray"
                    }
                  ]
                }
              ]
            }
          },
          {
            "fullUrl": "http://test.fhir.ch/r4/Patient/MonikaWegmueller",
            "resource": {
              "resourceType": "Patient",
              "id": "MonikaWegmueller",
              "identifier": [
                {
                  "type": {
                    "coding": [
                      {
                        "system": "http://terminology.hl7.org/CodeSystem/v2-0203",
                        "code": "MR"
                      }
                    ]
                  },
                  "system": "urn:oid:2.999",
                  "value": "11111111"
                }
              ],
              "name": [
                {
                  "family": "Wegmüller",
                  "given": [
                    "Monika"
                  ]
                }
              ],
              "gender": "female",
              "birthDate": "1943-05-15",
              "address": [
                {
                  "line": [
                    "Wiesenstr. 12"
                  ],
                  "city": "Zürich",
                  "postalCode": "8003",
                  "country": "CH"
                }
              ]
            }
          },
          {
            "fullUrl": "http://test.fhir.ch/r4/Practitioner/SpezialistMetzler",
            "resource": {
              "resourceType": "Practitioner",
              "id": "SpezialistMetzler",
              "identifier": [
                {
                  "system": "urn:oid:2.51.1.3",
                  "value": "7601000232255"
                }
              ],
              "name": [
                {
                  "family": "Metzler",
                  "given": [
                    "Spezialist"
                  ]
                }
              ]
            }
          },
          {
            "fullUrl": "http://test.fhir.ch/r4/Organization/SpezialistNeuro",
            "resource": {
              "resourceType": "Organization",
              "id": "SpezialistNeuro",
              "identifier": [
                {
                  "system": "urn:oid:2.51.1.3",
                  "value": "7601000232255"
                }
              ],
              "name": "Spezialist Neuro"
            }
          },
          {
            "fullUrl": "http://test.fhir.ch/r4/Patient/MonikaWegmuellerRecipient",
            "resource": {
              "resourceType": "Patient",
              "id": "MonikaWegmuellerRecipient",
              "name": [
                {
                  "family": "Wegmüller",
                  "given": [
                    "Monika"
                  ]
                }
              ],
              "address": [
                {
                  "line": [
                    "Wiesenstr. 12"
                  ],
                  "city": "Zürich",
                  "postalCode": "8003",
                  "country": "CH"
                }
              ]
            }
          },
          {
            "fullUrl": "http://test.fhir.ch/r4/MedicationStatement/A6-MedStatImigran-Tbl",
            "resource": {
              "resourceType": "MedicationStatement",
              "id": "A6-MedStatImigran-Tbl",
              "contained": [
                {
                  "resourceType": "Medication",
                  "id": "cont1",
                  "code": {
                    "coding": [
                      {
                        "system": "urn:oid:2.51.1.1",
                        "code": "7680516850592",
                        "display": "IMIGRAN 50 mg Filmtabl"
                      }
                    ],
                    "text": "IMIGRAN 50 mg Filmtabl"
                  },
                  "form": {
                    "coding": [
                      {
                        "system": "urn:oid:0.4.0.127.0.16.1.1.2.1",
                        "code": "10221000",
                        "display": "Film-coated tablet"
                      }
                    ]
                  },
                  "amount": {
                    "numerator": {
                      "value": 12
                    },
                    "denominator": {
                      "value": 1
                    }
                  },
                  "ingredient": [
                    {
                      "itemCodeableConcept": {
                        "coding": [
                          {
                            "system": "http://snomed.info/sct",
                            "code": "395892000",
                            "display": "Sumatriptan (substance)"
                          }
                        ]
                      },
                      "strength": {
                        "numerator": {
                          "value": 50,
                          "unit": "mg"
                        },
                        "denominator": {
                          "value": 1
                        }
                      }
                    }
                  ]
                }
              ],
              "status": "completed",
              "category": {
                "coding": [
                  {
                    "system": "http://www.whocc.no/atc",
                    "code": "N",
                    "display": "Nervensystem"
                  }
                ]
              },
              "medicationReference": {
                "reference": "#cont1"
              },
              "subject": {
                "reference": "Patient/MonikaWegmueller"
              },
              "reasonCode": [
                {
                  "text": "Migräne"
                }
              ],
              "dosage": [
                {
                  "text": "2 Tabletten morgens"
                },
                {
                  "timing": {
                    "repeat": {
                      "boundsPeriod": {
                        "start": "2020-02-05"
                      },
                      "when": [
                        "CM"
                      ]
                    }
                  },
                  "route": {
                    "coding": [
                      {
                        "system": "urn:oid:0.4.0.127.0.16.1.1.2.1",
                        "code": "20053000",
                        "display": "Oral use"
                      }
                    ]
                  },
                  "doseAndRate": [
                    {
                      "doseQuantity": {
                        "value": 2,
                        "unit": "Tablette",
                        "system": "http://unitsofmeasure.org",
                        "code": "1"
                      }
                    }
                  ]
                }
              ]
            }
          },
          {
            "fullUrl": "http://test.fhir.ch/r4/MedicationStatement/A6-MedStatImigran-Spray",
            "resource": {
              "resourceType": "MedicationStatement",
              "id": "A6-MedStatImigran-Spray",
              "contained": [
                {
                  "resourceType": "Medication",
                  "id": "cont1",
                  "code": {
                    "coding": [
                      {
                        "system": "urn:oid:2.51.1.1",
                        "code": "7680537080138",
                        "display": "IMIGRAN Nasenspray 10 mg"
                      }
                    ],
                    "text": "IMIGRAN Nasenspray 10 mg"
                  },
                  "form": {
                    "coding": [
                      {
                        "system": "urn:oid:0.4.0.127.0.16.1.1.2.1",
                        "code": "10808000",
                        "display": "Nasal spray, solution"
                      }
                    ]
                  },
                  "amount": {
                    "numerator": {
                      "value": 2
                    },
                    "denominator": {
                      "value": 1
                    }
                  },
                  "ingredient": [
                    {
                      "itemCodeableConcept": {
                        "coding": [
                          {
                            "system": "http://snomed.info/sct",
                            "code": "395892000",
                            "display": "Sumatriptan (substance)"
                          }
                        ]
                      },
                      "strength": {
                        "numerator": {
                          "value": 10,
                          "unit": "mg"
                        },
                        "denominator": {
                          "value": 1
                        }
                      }
                    }
                  ]
                }
              ],
              "status": "completed",
              "category": {
                "coding": [
                  {
                    "system": "http://www.whocc.no/atc",
                    "code": "N",
                    "display": "Nervensystem"
                  }
                ]
              },
              "medicationReference": {
                "reference": "#cont1"
              },
              "subject": {
                "reference": "Patient/MonikaWegmueller"
              },
              "reasonCode": [
                {
                  "text": "Migräne"
                }
              ],
              "dosage": [
                {
                  "text": "2 Hübe morgens"
                },
                {
                  "timing": {
                    "repeat": {
                      "boundsPeriod": {
                        "start": "2020-03-01"
                      },
                      "when": [
                        "CM"
                      ]
                    }
                  },
                  "route": {
                    "coding": [
                      {
                        "system": "urn:oid:0.4.0.127.0.16.1.1.2.1",
                        "code": "20049000",
                        "display": "Nasal use"
                      }
                    ]
                  },
                  "doseAndRate": [
                    {
                      "doseQuantity": {
                        "value": 2,
                        "unit": "Hübe",
                        "system": "http://unitsofmeasure.org",
                        "code": "1"
                      }
                    }
                  ]
                }
              ]
            }
          }
        ]
      }
    }
  ]
}