<?xml version="1.0" encoding="UTF-8"?>

<Bundle xmlns="http://hl7.org/fhir">
  <id value="LabResultReport-1-tvt"/>
  <meta>
    <lastUpdated value="2023-08-18T01:43:30Z"/>
    <profile value="http://fhir.ch/ig/ch-lab-report/StructureDefinition/ch-lab-report-document"/>
    <profile value="http://hl7.eu/fhir/laboratory/StructureDefinition/Bundle-eu-lab"/>
  </meta>
  <identifier>
    <system value="http://example.org"/>
    <value value="e65fa2fa-c130-4097-9848-486ee61f58df"/>
  </identifier>
  <type value="document"/>
  <timestamp value="2023-03-09T14:30:00+01:00"/>
  <entry>
    <fullUrl value="urn:uuid:3dd8d097-67d0-4e39-aa68-5ab6fc13169c"/>
    <resource>
      <Composition>
        <id value="3dd8d097-67d0-4e39-aa68-5ab6fc13169c"/>
        <meta>
          <profile value="http://fhir.ch/ig/ch-lab-report/StructureDefinition/ch-lab-report-composition"/>
        </meta>
        <text>
          <status value="extensions"/><div xmlns="http://www.w3.org/1999/xhtml"><a name="Composition_3dd8d097-67d0-4e39-aa68-5ab6fc13169c"> </a><p class="res-header-id"><b>Generated Narrative: Composition 3dd8d097-67d0-4e39-aa68-5ab6fc13169c</b></p><a name="3dd8d097-67d0-4e39-aa68-5ab6fc13169c"> </a><a name="hc3dd8d097-67d0-4e39-aa68-5ab6fc13169c"> </a><a name="3dd8d097-67d0-4e39-aa68-5ab6fc13169c-en-US"> </a><div style="display: inline-block; background-color: #d9e0e7; padding: 6px; margin: 4px; border: 1px solid #8da1b4; border-radius: 5px; line-height: 60%"><p style="margin-bottom: 0px"/><p style="margin-bottom: 0px">Profile: <a href="StructureDefinition-ch-lab-report-composition.html">CH LAB-Report Composition: Laboratory Report</a></p></div><p><b>Information recipient</b>: <a href="Bundle-LabResultReport-1-tvt.html#urn-uuid-017e8e32-2f3b-4bef-baf1-92c7278a7048">MarcMustermannArztpraxis</a></p><p><b>Information recipient</b>: <a href="Bundle-LabResultReport-1-tvt.html#urn-uuid-6b8a0365-5022-403b-a5a5-8d8680d701ef">Hans Guggindieluft</a></p><p><b>Document DiagnosticReport Reference</b>: <a href="Bundle-LabResultReport-1-tvt.html#urn-uuid-03464e4f-12f0-4d50-970d-f522b92a3f06">DiagnosticReport-1-tvt</a></p><p><b>Document Based On Order</b>: <a href="Bundle-LabResultReport-1-tvt.html#urn-uuid-9e180157-5a4e-4a8a-8ca9-9b09c2056666">ServiceRequest-CBC-panel</a></p><p><b>Document Based On Order</b>: <a href="Bundle-LabResultReport-1-tvt.html#urn-uuid-8d98f9d1-581b-4495-93aa-4a522fa30a6c">ServiceRequest-CRP</a></p><p><b>Document Based On Order</b>: <a href="Bundle-LabResultReport-1-tvt.html#urn-uuid-e0330c6c-4f9b-46e7-8817-2ae5301f5d14">ServiceRequest-D-Dimer</a></p><p><b>identifier</b>: <a href="http://terminology.hl7.org/6.2.0/NamingSystem-uri.html" title="As defined by RFC 3986 (http://www.ietf.org/rfc/rfc3986.txt)(with many schemes defined in many RFCs). For OIDs and UUIDs, use the URN form (urn:oid:(note: lowercase) and urn:uuid:). See http://www.ietf.org/rfc/rfc3001.txt and http://www.ietf.org/rfc/rfc4122.txt 

This oid is used as an identifier II.root to indicate the the extension is an absolute URI (technically, an IRI). Typically, this is used for OIDs and GUIDs. Note that when this OID is used with OIDs and GUIDs, the II.extension should start with urn:oid or urn:uuid: 

Note that this OID is created to aid with interconversion between CDA and FHIR - FHIR uses urn:ietf:rfc:3986 as equivalent to this OID. URIs as identifiers appear more commonly in FHIR.

This OID may also be used in CD.codeSystem.">Uniform Resource Identifier (URI)</a>/urn:uuid:3f69e0a5-2177-4540-baab-7a5d0877428f</p><p><b>status</b>: Final</p><p><b>type</b>: <span title="Codes:{http://loinc.org 11502-2}">Laboratory report</span></p><p><b>date</b>: 2023-03-09 14:30:00+0100</p><p><b>author</b>: <a href="Bundle-LabResultReport-1-tvt.html#urn-uuid-12328339-f7d6-4bb6-80e4-89fd03ce5052">Dr. Eva Erlenmeyer</a></p><p><b>title</b>: Laboratory Report - 10 March, 2023 14:30</p><p><b>confidentiality</b>: normal</p><h3>Attesters</h3><table class="grid"><tr><td style="display: none">-</td><td><b>Mode</b></td><td><b>Time</b></td><td><b>Party</b></td></tr><tr><td style="display: none">*</td><td>Legal</td><td>2020-12-27 14:30:00+0100</td><td><a href="Bundle-LabResultReport-1-tvt.html#urn-uuid-12328339-f7d6-4bb6-80e4-89fd03ce5052">Eva Erlenmeyer</a></td></tr></table><p><b>custodian</b>: <a href="Bundle-LabResultReport-1-tvt.html#urn-uuid-84483dc8-81d3-41cc-8d24-10c241279024">Labor Pipette</a></p></div>
        </text>
        <extension url="http://hl7.eu/fhir/StructureDefinition/information-recipient">
          <valueReference>
            <reference value="urn:uuid:017e8e32-2f3b-4bef-baf1-92c7278a7048"/>
            <display value="MarcMustermannArztpraxis"/>
          </valueReference>
        </extension>
        <extension url="http://hl7.eu/fhir/StructureDefinition/information-recipient">
          <valueReference>
            <reference value="urn:uuid:6b8a0365-5022-403b-a5a5-8d8680d701ef"/>
            <display value="Hans Guggindieluft"/>
          </valueReference>
        </extension>
        <extension url="http://hl7.eu/fhir/laboratory/StructureDefinition/composition-diagnosticReportReference">
          <valueReference>
            <reference value="urn:uuid:03464e4f-12f0-4d50-970d-f522b92a3f06"/>
            <display value="DiagnosticReport-1-tvt"/>
          </valueReference>
        </extension>
        <extension url="http://hl7.eu/fhir/StructureDefinition/composition-basedOn-order-or-requisition">
          <valueReference>
            <reference value="urn:uuid:9e180157-5a4e-4a8a-8ca9-9b09c2056666"/>
            <display value="ServiceRequest-CBC-panel"/>
          </valueReference>
        </extension>
        <extension url="http://hl7.eu/fhir/StructureDefinition/composition-basedOn-order-or-requisition">
          <valueReference>
            <reference value="urn:uuid:8d98f9d1-581b-4495-93aa-4a522fa30a6c"/>
            <display value="ServiceRequest-CRP"/>
          </valueReference>
        </extension>
        <extension url="http://hl7.eu/fhir/StructureDefinition/composition-basedOn-order-or-requisition">
          <valueReference>
            <reference value="urn:uuid:e0330c6c-4f9b-46e7-8817-2ae5301f5d14"/>
            <display value="ServiceRequest-D-Dimer"/>
          </valueReference>
        </extension>
        <identifier>
          <system value="urn:ietf:rfc:3986"/>
          <value value="urn:uuid:3f69e0a5-2177-4540-baab-7a5d0877428f"/>
        </identifier>
        <status value="final"/>
        <type>
          <coding>
            <system value="http://loinc.org"/>
            <code value="11502-2"/>
            <display value="Laboratory report"/>
          </coding>
        </type>
        <subject>
          <reference value="urn:uuid:6b8a0365-5022-403b-a5a5-8d8680d701ef"/>
          <display value="Hans Guggindieluft"/>
        </subject>
        <date value="2023-03-09T14:30:00+01:00"/>
        <author>
          <reference value="urn:uuid:12328339-f7d6-4bb6-80e4-89fd03ce5052"/>
          <display value="Dr. Eva Erlenmeyer"/>
        </author>
        <title value="Laboratory Report - 10 March, 2023 14:30"/>
        <confidentiality value="N"/>
        <attester>
          <mode value="legal"/>
          <time value="2020-12-27T14:30:00+01:00"/>
          <party>
            <reference value="urn:uuid:12328339-f7d6-4bb6-80e4-89fd03ce5052"/>
            <display value="Eva Erlenmeyer"/>
          </party>
        </attester>
        <custodian>
          <reference value="urn:uuid:84483dc8-81d3-41cc-8d24-10c241279024"/>
          <display value="Labor Pipette"/>
        </custodian>
        <section>
          <title value="Laboratory examinations"/>
          <code>
            <coding>
              <system value="http://loinc.org"/>
              <code value="26436-6"/>
              <display value="Laboratory studies (set)"/>
            </coding>
            <text value="Laboratory studies"/>
          </code>
          <section>
            <title value="Hematology studies (set)"/>
            <code>
              <coding>
                <system value="http://loinc.org"/>
                <code value="58410-2"/>
              </coding>
            </code>
            <entry>
              <reference value="urn:uuid:0ad0810e-6eb4-11ee-b962-0242ac120002"/>
              <display value="Observation-CBC-panel"/>
            </entry>
          </section>
          <section>
            <title value="Chemistry studies (set)"/>
            <code>
              <coding>
                <system value="http://loinc.org"/>
                <code value="18719-5"/>
              </coding>
            </code>
            <entry>
              <reference value="urn:uuid:c0eeeb40-77ed-46f3-b8d6-5fdac0a61f7c"/>
              <display value="Observation-CRP"/>
            </entry>
          </section>
          <section>
            <title value="Coagulation studies (set)"/>
            <code>
              <coding>
                <system value="http://loinc.org"/>
                <code value="18720-3"/>
              </coding>
            </code>
            <entry>
              <reference value="urn:uuid:f30d8df7-474f-401e-b5d4-f690d28d718d"/>
              <display value="Observation-D-Dimer"/>
            </entry>
          </section>
        </section>
      </Composition>
    </resource>
  </entry>
  <entry>
    <fullUrl value="urn:uuid:03464e4f-12f0-4d50-970d-f522b92a3f06"/>
    <resource>
      <DiagnosticReport>
        <id value="03464e4f-12f0-4d50-970d-f522b92a3f06"/>
        <meta>
          <profile value="http://fhir.ch/ig/ch-lab-report/StructureDefinition/ch-lab-diagnosticreport"/>
        </meta>
        <text>
          <status value="generated"/><div xmlns="http://www.w3.org/1999/xhtml"><a name="DiagnosticReport_03464e4f-12f0-4d50-970d-f522b92a3f06"> </a><p class="res-header-id"><b>Generated Narrative: DiagnosticReport 03464e4f-12f0-4d50-970d-f522b92a3f06</b></p><a name="03464e4f-12f0-4d50-970d-f522b92a3f06"> </a><a name="hc03464e4f-12f0-4d50-970d-f522b92a3f06"> </a><a name="03464e4f-12f0-4d50-970d-f522b92a3f06-en-US"> </a><div style="display: inline-block; background-color: #d9e0e7; padding: 6px; margin: 4px; border: 1px solid #8da1b4; border-radius: 5px; line-height: 60%"><p style="margin-bottom: 0px"/><p style="margin-bottom: 0px">Profile: <a href="StructureDefinition-ch-lab-diagnosticreport.html">CH LAB-Report DiagnosticReport: Laboratory Report</a></p></div><h2><span title="Codes:{http://loinc.org 11502-2}">Laboratory report</span> </h2><table class="grid"><tr><td>Subject</td><td>Not done yet</td></tr><tr><td>When For</td><td>2022-10-25 13:35:00+0100</td></tr><tr><td>Performer</td><td> <a href="Bundle-LabResultReport-1-tvt.html#urn-uuid-8472931c-fbd0-437b-9ed1-4f66472c78b5">Dr. Eva Erlenmeyer</a></td></tr><tr><td>Identifier</td><td> <a href="http://terminology.hl7.org/6.2.0/NamingSystem-uri.html" title="As defined by RFC 3986 (http://www.ietf.org/rfc/rfc3986.txt)(with many schemes defined in many RFCs). For OIDs and UUIDs, use the URN form (urn:oid:(note: lowercase) and urn:uuid:). See http://www.ietf.org/rfc/rfc3001.txt and http://www.ietf.org/rfc/rfc4122.txt 

This oid is used as an identifier II.root to indicate the the extension is an absolute URI (technically, an IRI). Typically, this is used for OIDs and GUIDs. Note that when this OID is used with OIDs and GUIDs, the II.extension should start with urn:oid or urn:uuid: 

Note that this OID is created to aid with interconversion between CDA and FHIR - FHIR uses urn:ietf:rfc:3986 as equivalent to this OID. URIs as identifiers appear more commonly in FHIR.

This OID may also be used in CD.codeSystem.">Uniform Resource Identifier (URI)</a>/urn:uuid:3f69e0a5-2177-4540-baab-7a5d0877428f</td></tr></table><p><b>Report Details</b></p><table class="grid"><tr><td><b>Code</b></td><td><b>Value</b></td></tr><tr><td/><td/></tr><tr><td/><td/></tr><tr><td/><td/></tr></table></div>
        </text>
        <extension url="http://hl7.org/fhir/5.0/StructureDefinition/extension-DiagnosticReport.composition">
          <valueReference>
            <reference value="urn:uuid:3dd8d097-67d0-4e39-aa68-5ab6fc13169c"/>
          </valueReference>
        </extension>
        <identifier>
          <system value="urn:ietf:rfc:3986"/>
          <value value="urn:uuid:3f69e0a5-2177-4540-baab-7a5d0877428f"/>
        </identifier>
        <basedOn>
          <reference value="urn:uuid:9e180157-5a4e-4a8a-8ca9-9b09c2056666"/>
          <display value="ServiceRequest-CBC-panel"/>
        </basedOn>
        <basedOn>
          <reference value="urn:uuid:8d98f9d1-581b-4495-93aa-4a522fa30a6c"/>
          <display value="ServiceRequest-CRP"/>
        </basedOn>
        <basedOn>
          <reference value="urn:uuid:e0330c6c-4f9b-46e7-8817-2ae5301f5d14"/>
          <display value="ServiceRequest-D-Dimer"/>
        </basedOn>
        <status value="final"/>
        <code>
          <coding>
            <system value="http://loinc.org"/>
            <code value="11502-2"/>
            <display value="Laboratory report"/>
          </coding>
        </code>
        <subject>
          <reference value="urn:uuid:6b8a0365-5022-403b-a5a5-8d8680d701ef"/>
          <display value="Hans Guggindieluft"/>
        </subject>
        <effectiveDateTime value="2022-10-25T13:35:00+01:00"/>
        <performer>
          <reference value="urn:uuid:8472931c-fbd0-437b-9ed1-4f66472c78b5"/>
          <display value="Dr. Eva Erlenmeyer"/>
        </performer>
        <specimen>
          <reference value="urn:uuid:3a98a13d-cf64-40bb-b7a0-87ef45193a74"/>
          <display value="Blood Sample"/>
        </specimen>
        <specimen>
          <reference value="urn:uuid:8d38e1bd-dced-45c1-8978-949d6cfd21e8"/>
          <display value="Blood Sample Coagulation"/>
        </specimen>
        <specimen>
          <reference value="urn:uuid:9b554309-f9d4-4559-ba81-91659cd11786"/>
          <display value="Serum Sample"/>
        </specimen>
        <result>
          <reference value="urn:uuid:0ad0810e-6eb4-11ee-b962-0242ac120002"/>
          <display value="Observation-CBC-panel"/>
        </result>
        <result>
          <reference value="urn:uuid:c0eeeb40-77ed-46f3-b8d6-5fdac0a61f7c"/>
          <display value="Observation-CRP"/>
        </result>
        <result>
          <reference value="urn:uuid:f30d8df7-474f-401e-b5d4-f690d28d718d"/>
          <display value="Observation-D-Dimer"/>
        </result>
      </DiagnosticReport>
    </resource>
  </entry>
  <entry>
    <fullUrl value="urn:uuid:6b8a0365-5022-403b-a5a5-8d8680d701ef"/>
    <resource>
      <Patient>
        <id value="6b8a0365-5022-403b-a5a5-8d8680d701ef"/>
        <meta id="meta-12345">
          <lastUpdated value="2023-08-18T01:43:30Z"/>
          <profile value="http://fhir.ch/ig/ch-lab-report/StructureDefinition/ch-lab-patient"/>
        </meta>
        <text>
          <status value="additional"/><div xmlns="http://www.w3.org/1999/xhtml"><p><b>id</b>: HansGuggindieluft</p><p><b>meta</b>:</p><p><b>identifier</b>: 012/08.111111</p><p><b>name</b>: Hans Guggindieluft</p><p><b>gender</b>: MALE</p><p><b>birthDate</b>: Jan 01, 1981</p><p><b>maritalStatus</b>: unverheiratet <span style="background: LightGoldenRodYellow">(Details : {$ech-11-maritalstatus code '5' = '5', given as 'unverheiratet'})</span></p><h3>Communications</h3><table class="grid"><tr><td>-</td><td><b>Language</b></td><td><b>Preferred</b></td></tr><tr><td>*</td><td>Deutsch (Schweiz) <span style="background: LightGoldenRodYellow">(Details : {urn:ietf:bcp:47 code 'de-CH' = 'German (Region=Schweiz))</span></td><td>true</td></tr></table></div>
        </text>
        <identifier>
          <system value="urn:oid:2.16.756.5.30.1.123.100.1.1.1"/>
          <value value="80756011110123400112"/>
        </identifier>
        <name>
          <text value="Hans Guggindieluft"/>
          <family value="Guggindieluft"/>
          <given value="Hans"/>
        </name>
        <telecom>
          <system value="phone"/>
          <value value="079 979 79 79"/>
          <use value="home"/>
        </telecom>
        <telecom>
          <system value="email"/>
          <value value="hans.guggindieluft@example.ch"/>
        </telecom>
        <gender value="male"/>
        <birthDate value="1981-01-01"/>
        <maritalStatus>
          <coding>
            <system value="http://fhir.ch/ig/ch-core/CodeSystem/ech-11-maritalstatus"/>
            <code value="5"/>
            <display value="unverheiratet"/>
          </coding>
          <coding>
            <system value="http://terminology.hl7.org/CodeSystem/v3-MaritalStatus"/>
            <code value="U"/>
            <display value="unmarried"/>
          </coding>
        </maritalStatus>
        <communication>
          <language>
            <coding>
              <system value="urn:ietf:bcp:47"/>
              <code value="de-CH"/>
            </coding>
            <text value="Deutsch (Schweiz)"/>
          </language>
          <preferred value="true"/>
        </communication>
        <generalPractitioner>
          <reference value="urn:uuid:e23d6fa1-88bc-497c-a4df-eb3fa60eaa37"/>
          <display value="Dr. med. Marc Mustermann"/>
        </generalPractitioner>
      </Patient>
    </resource>
  </entry>
  <entry>
    <fullUrl value="urn:uuid:0ad0810e-6eb4-11ee-b962-0242ac120002"/>
    <resource>
      <Observation>
        <id value="0ad0810e-6eb4-11ee-b962-0242ac120002"/>
        <meta>
          <profile value="http://fhir.ch/ig/ch-lab-report/StructureDefinition/ch-lab-observation-results-laboratory"/>
        </meta>
        <text>
          <status value="generated"/><div xmlns="http://www.w3.org/1999/xhtml"><a name="Observation_0ad0810e-6eb4-11ee-b962-0242ac120002"> </a><p class="res-header-id"><b>Generated Narrative: Observation 0ad0810e-6eb4-11ee-b962-0242ac120002</b></p><a name="0ad0810e-6eb4-11ee-b962-0242ac120002"> </a><a name="hc0ad0810e-6eb4-11ee-b962-0242ac120002"> </a><a name="0ad0810e-6eb4-11ee-b962-0242ac120002-en-US"> </a><div style="display: inline-block; background-color: #d9e0e7; padding: 6px; margin: 4px; border: 1px solid #8da1b4; border-radius: 5px; line-height: 60%"><p style="margin-bottom: 0px"/><p style="margin-bottom: 0px">Profile: <a href="StructureDefinition-ch-lab-observation-results-laboratory.html">CH LAB-Report Observation Results: Laboratory Report</a></p></div><p><b>status</b>: Final</p><p><b>category</b>: <span title="Codes:{http://terminology.hl7.org/CodeSystem/observation-category laboratory}">Laboratory</span>, <span title="Codes:{http://snomed.info/sct 394916005}">Hematopathology</span>, <span title="Codes:{http://loinc.org 18723-7}">Hematology studies (set)</span></p><p><b>code</b>: <span title="Codes:{http://loinc.org 58410-2}">CBC panel Auto (Bld)</span></p><p><b>subject</b>: <a href="Bundle-LabResultReport-1-tvt.html#urn-uuid-6b8a0365-5022-403b-a5a5-8d8680d701ef">Hans Guggindieluft</a></p><p><b>effective</b>: 2024-04-23 11:24:26+0100</p><p><b>performer</b>: <a href="Bundle-LabResultReport-1-tvt.html#urn-uuid-12328339-f7d6-4bb6-80e4-89fd03ce5052">Eva Erlenmeyer</a></p><p><b>specimen</b>: <a href="Bundle-LabResultReport-1-tvt.html#urn-uuid-3a98a13d-cf64-40bb-b7a0-87ef45193a74">Blood Sample</a></p><p><b>device</b>: <a href="Bundle-LabResultReport-1-tvt.html#urn-uuid-3b9c6849-cf71-45e9-9d88-31f7879342f0">Sysmex XP-300</a></p><p><b>hasMember</b>: </p><ul><li><a href="Bundle-LabResultReport-1-tvt.html#urn-uuid-5c1ceea1-2751-4ddc-afb5-4c28037ba1be">Observation-WBC</a></li><li><a href="Bundle-LabResultReport-1-tvt.html#urn-uuid-04ec7690-a1e8-4fdf-be4f-6c92949e948a">Observation-RBC</a></li><li><a href="Bundle-LabResultReport-1-tvt.html#urn-uuid-2565be07-47a0-4cca-926e-a57e1ac96fb8">Observation-HGB</a></li><li><a href="Bundle-LabResultReport-1-tvt.html#urn-uuid-c4d64c0a-aafb-4b41-ae0b-a620b2a6c08c">Observation-HT</a></li><li><a href="Bundle-LabResultReport-1-tvt.html#urn-uuid-857cfa10-66ea-45ae-b236-e6e03af4be3f">Observation-MCV</a></li><li><a href="Bundle-LabResultReport-1-tvt.html#urn-uuid-3b263f29-44d8-468f-b612-e748442e1845">Observation-MCH</a></li><li><a href="Bundle-LabResultReport-1-tvt.html#urn-uuid-735c9244-497a-420d-b006-15a57be365b1">Observation-MCHC</a></li><li><a href="Bundle-LabResultReport-1-tvt.html#urn-uuid-32a7d6fb-dc8a-4673-8cef-c59c1c5397db">Observation-Platelet</a></li></ul></div>
        </text>
        <status value="final"/>
        <category>
          <coding>
            <system value="http://terminology.hl7.org/CodeSystem/observation-category"/>
            <code value="laboratory"/>
          </coding>
        </category>
        <category>
          <coding>
            <system value="http://snomed.info/sct"/>
            <code value="394916005"/>
            <display value="Hematopathology"/>
          </coding>
        </category>
        <category>
          <coding>
            <system value="http://loinc.org"/>
            <code value="18723-7"/>
            <display value="Hematology studies (set)"/>
          </coding>
        </category>
        <code>
          <coding>
            <system value="http://loinc.org"/>
            <code value="58410-2"/>
            <display value="CBC panel - Blood by Automated count"/>
          </coding>
          <text value="CBC panel Auto (Bld)"/>
        </code>
        <subject>
          <reference value="urn:uuid:6b8a0365-5022-403b-a5a5-8d8680d701ef"/>
          <display value="Hans Guggindieluft"/>
        </subject>
        <effectiveDateTime value="2024-04-23T11:24:26+01:00"/>
        <performer>
          <reference value="urn:uuid:12328339-f7d6-4bb6-80e4-89fd03ce5052"/>
          <display value="Eva Erlenmeyer"/>
        </performer>
        <specimen>
          <reference value="urn:uuid:3a98a13d-cf64-40bb-b7a0-87ef45193a74"/>
          <display value="Blood Sample"/>
        </specimen>
        <device>
          <reference value="urn:uuid:3b9c6849-cf71-45e9-9d88-31f7879342f0"/>
          <display value="Sysmex XP-300"/>
        </device>
        <hasMember>
          <reference value="urn:uuid:5c1ceea1-2751-4ddc-afb5-4c28037ba1be"/>
          <display value="Observation-WBC"/>
        </hasMember>
        <hasMember>
          <reference value="urn:uuid:04ec7690-a1e8-4fdf-be4f-6c92949e948a"/>
          <display value="Observation-RBC"/>
        </hasMember>
        <hasMember>
          <reference value="urn:uuid:2565be07-47a0-4cca-926e-a57e1ac96fb8"/>
          <display value="Observation-HGB"/>
        </hasMember>
        <hasMember>
          <reference value="urn:uuid:c4d64c0a-aafb-4b41-ae0b-a620b2a6c08c"/>
          <display value="Observation-HT"/>
        </hasMember>
        <hasMember>
          <reference value="urn:uuid:857cfa10-66ea-45ae-b236-e6e03af4be3f"/>
          <display value="Observation-MCV"/>
        </hasMember>
        <hasMember>
          <reference value="urn:uuid:3b263f29-44d8-468f-b612-e748442e1845"/>
          <display value="Observation-MCH"/>
        </hasMember>
        <hasMember>
          <reference value="urn:uuid:735c9244-497a-420d-b006-15a57be365b1"/>
          <display value="Observation-MCHC"/>
        </hasMember>
        <hasMember>
          <reference value="urn:uuid:32a7d6fb-dc8a-4673-8cef-c59c1c5397db"/>
          <display value="Observation-Platelet"/>
        </hasMember>
      </Observation>
    </resource>
  </entry>
  <entry>
    <fullUrl value="urn:uuid:5c1ceea1-2751-4ddc-afb5-4c28037ba1be"/>
    <resource>
      <Observation>
        <id value="5c1ceea1-2751-4ddc-afb5-4c28037ba1be"/>
        <meta>
          <profile value="http://fhir.ch/ig/ch-lab-report/StructureDefinition/ch-lab-observation-results-laboratory"/>
        </meta>
        <text>
          <status value="generated"/><div xmlns="http://www.w3.org/1999/xhtml"><a name="Observation_5c1ceea1-2751-4ddc-afb5-4c28037ba1be"> </a><p class="res-header-id"><b>Generated Narrative: Observation 5c1ceea1-2751-4ddc-afb5-4c28037ba1be</b></p><a name="5c1ceea1-2751-4ddc-afb5-4c28037ba1be"> </a><a name="hc5c1ceea1-2751-4ddc-afb5-4c28037ba1be"> </a><a name="5c1ceea1-2751-4ddc-afb5-4c28037ba1be-en-US"> </a><div style="display: inline-block; background-color: #d9e0e7; padding: 6px; margin: 4px; border: 1px solid #8da1b4; border-radius: 5px; line-height: 60%"><p style="margin-bottom: 0px"/><p style="margin-bottom: 0px">Profile: <a href="StructureDefinition-ch-lab-observation-results-laboratory.html">CH LAB-Report Observation Results: Laboratory Report</a></p></div><p><b>status</b>: Final</p><p><b>category</b>: <span title="Codes:{http://terminology.hl7.org/CodeSystem/observation-category laboratory}">Laboratory</span>, <span title="Codes:{http://snomed.info/sct 394916005}">Hematopathology</span>, <span title="Codes:{http://loinc.org 18723-7}">Hematology studies (set)</span></p><p><b>code</b>: <span title="Codes:{http://loinc.org 6690-2}">WBC Auto (Bld) [#/Vol]</span></p><p><b>subject</b>: <a href="Bundle-LabResultReport-1-tvt.html#urn-uuid-6b8a0365-5022-403b-a5a5-8d8680d701ef">Hans Guggindieluft</a></p><p><b>effective</b>: 2024-04-23 11:24:26+0100</p><p><b>performer</b>: <a href="Bundle-LabResultReport-1-tvt.html#urn-uuid-12328339-f7d6-4bb6-80e4-89fd03ce5052">Eva Erlenmeyer</a></p><p><b>value</b>: 10 10*3/uL<span style="background: LightGoldenRodYellow"> (Details: UCUM  code10*3/uL = '10*3/uL')</span></p><p><b>method</b>: <span title="Codes:{http://snomed.info/sct 702659008}">Automated count technique (qualifier value)</span></p><h3>ReferenceRanges</h3><table class="grid"><tr><td style="display: none">-</td><td><b>Low</b></td><td><b>High</b></td><td><b>Type</b></td></tr><tr><td style="display: none">*</td><td>4.5 10*3/uL</td><td>11 10*3/uL</td><td><span title="Codes:{http://terminology.hl7.org/CodeSystem/referencerange-meaning normal}">Normal Range</span></td></tr></table></div>
        </text>
        <status value="final"/>
        <category>
          <coding>
            <system value="http://terminology.hl7.org/CodeSystem/observation-category"/>
            <code value="laboratory"/>
          </coding>
        </category>
        <category>
          <coding>
            <system value="http://snomed.info/sct"/>
            <code value="394916005"/>
            <display value="Hematopathology"/>
          </coding>
        </category>
        <category>
          <coding>
            <system value="http://loinc.org"/>
            <code value="18723-7"/>
            <display value="Hematology studies (set)"/>
          </coding>
        </category>
        <code>
          <coding>
            <system value="http://loinc.org"/>
            <code value="6690-2"/>
            <display value="Leukocytes [#/volume] in Blood by Automated count"/>
          </coding>
          <text value="WBC Auto (Bld) [#/Vol]"/>
        </code>
        <subject>
          <reference value="urn:uuid:6b8a0365-5022-403b-a5a5-8d8680d701ef"/>
          <display value="Hans Guggindieluft"/>
        </subject>
        <effectiveDateTime value="2024-04-23T11:24:26+01:00"/>
        <performer>
          <reference value="urn:uuid:12328339-f7d6-4bb6-80e4-89fd03ce5052"/>
          <display value="Eva Erlenmeyer"/>
        </performer>
        <valueQuantity>
          <value value="10"/>
          <unit value="10*3/uL"/>
          <system value="http://unitsofmeasure.org"/>
          <code value="10*3/uL"/>
        </valueQuantity>
        <method>
          <coding>
            <system value="http://snomed.info/sct"/>
            <code value="702659008"/>
            <display value="Automated count technique (qualifier value)"/>
          </coding>
        </method>
        <referenceRange>
          <low>
            <value value="4.5"/>
            <unit value="10*3/uL"/>
          </low>
          <high>
            <value value="11"/>
            <unit value="10*3/uL"/>
          </high>
          <type>
            <coding>
              <system value="http://terminology.hl7.org/CodeSystem/referencerange-meaning"/>
              <code value="normal"/>
              <display value="Normal Range"/>
            </coding>
            <text value="Normal Range"/>
          </type>
        </referenceRange>
      </Observation>
    </resource>
  </entry>
  <entry>
    <fullUrl value="urn:uuid:04ec7690-a1e8-4fdf-be4f-6c92949e948a"/>
    <resource>
      <Observation>
        <id value="04ec7690-a1e8-4fdf-be4f-6c92949e948a"/>
        <meta>
          <profile value="http://fhir.ch/ig/ch-lab-report/StructureDefinition/ch-lab-observation-results-laboratory"/>
        </meta>
        <text>
          <status value="generated"/><div xmlns="http://www.w3.org/1999/xhtml"><a name="Observation_04ec7690-a1e8-4fdf-be4f-6c92949e948a"> </a><p class="res-header-id"><b>Generated Narrative: Observation 04ec7690-a1e8-4fdf-be4f-6c92949e948a</b></p><a name="04ec7690-a1e8-4fdf-be4f-6c92949e948a"> </a><a name="hc04ec7690-a1e8-4fdf-be4f-6c92949e948a"> </a><a name="04ec7690-a1e8-4fdf-be4f-6c92949e948a-en-US"> </a><div style="display: inline-block; background-color: #d9e0e7; padding: 6px; margin: 4px; border: 1px solid #8da1b4; border-radius: 5px; line-height: 60%"><p style="margin-bottom: 0px"/><p style="margin-bottom: 0px">Profile: <a href="StructureDefinition-ch-lab-observation-results-laboratory.html">CH LAB-Report Observation Results: Laboratory Report</a></p></div><p><b>status</b>: Final</p><p><b>category</b>: <span title="Codes:{http://terminology.hl7.org/CodeSystem/observation-category laboratory}">Laboratory</span>, <span title="Codes:{http://snomed.info/sct 394916005}">Hematopathology</span>, <span title="Codes:{http://loinc.org 18723-7}">Hematology studies (set)</span></p><p><b>code</b>: <span title="Codes:{http://loinc.org 789-8}">RBC Auto (Bld) [#/Vol]</span></p><p><b>subject</b>: <a href="Bundle-LabResultReport-1-tvt.html#urn-uuid-6b8a0365-5022-403b-a5a5-8d8680d701ef">Hans Guggindieluft</a></p><p><b>effective</b>: 2024-04-23 11:24:26+0100</p><p><b>performer</b>: <a href="Bundle-LabResultReport-1-tvt.html#urn-uuid-12328339-f7d6-4bb6-80e4-89fd03ce5052">Eva Erlenmeyer</a></p><p><b>value</b>: 4.58 10*6/uL<span style="background: LightGoldenRodYellow"> (Details: UCUM  code10*6/uL = '10*6/uL')</span></p><p><b>method</b>: <span title="Codes:{http://snomed.info/sct 702659008}">Automated count technique (qualifier value)</span></p><h3>ReferenceRanges</h3><table class="grid"><tr><td style="display: none">-</td><td><b>Low</b></td><td><b>High</b></td><td><b>Type</b></td></tr><tr><td style="display: none">*</td><td>4.1 10*6/uL</td><td>6.1 10*6/uL</td><td><span title="Codes:{http://terminology.hl7.org/CodeSystem/referencerange-meaning normal}">Normal Range</span></td></tr></table></div>
        </text>
        <status value="final"/>
        <category>
          <coding>
            <system value="http://terminology.hl7.org/CodeSystem/observation-category"/>
            <code value="laboratory"/>
          </coding>
        </category>
        <category>
          <coding>
            <system value="http://snomed.info/sct"/>
            <code value="394916005"/>
            <display value="Hematopathology"/>
          </coding>
        </category>
        <category>
          <coding>
            <system value="http://loinc.org"/>
            <code value="18723-7"/>
            <display value="Hematology studies (set)"/>
          </coding>
        </category>
        <code>
          <coding>
            <system value="http://loinc.org"/>
            <code value="789-8"/>
            <display value="Erythrocytes [#/volume] in Blood by Automated count"/>
          </coding>
          <text value="RBC Auto (Bld) [#/Vol]"/>
        </code>
        <subject>
          <reference value="urn:uuid:6b8a0365-5022-403b-a5a5-8d8680d701ef"/>
          <display value="Hans Guggindieluft"/>
        </subject>
        <effectiveDateTime value="2024-04-23T11:24:26+01:00"/>
        <performer>
          <reference value="urn:uuid:12328339-f7d6-4bb6-80e4-89fd03ce5052"/>
          <display value="Eva Erlenmeyer"/>
        </performer>
        <valueQuantity>
          <value value="4.58"/>
          <unit value="10*6/uL"/>
          <system value="http://unitsofmeasure.org"/>
          <code value="10*6/uL"/>
        </valueQuantity>
        <method>
          <coding>
            <system value="http://snomed.info/sct"/>
            <code value="702659008"/>
            <display value="Automated count technique (qualifier value)"/>
          </coding>
        </method>
        <referenceRange>
          <low>
            <value value="4.1"/>
            <unit value="10*6/uL"/>
          </low>
          <high>
            <value value="6.1"/>
            <unit value="10*6/uL"/>
          </high>
          <type>
            <coding>
              <system value="http://terminology.hl7.org/CodeSystem/referencerange-meaning"/>
              <code value="normal"/>
              <display value="Normal Range"/>
            </coding>
            <text value="Normal Range"/>
          </type>
        </referenceRange>
      </Observation>
    </resource>
  </entry>
  <entry>
    <fullUrl value="urn:uuid:2565be07-47a0-4cca-926e-a57e1ac96fb8"/>
    <resource>
      <Observation>
        <id value="2565be07-47a0-4cca-926e-a57e1ac96fb8"/>
        <meta>
          <profile value="http://fhir.ch/ig/ch-lab-report/StructureDefinition/ch-lab-observation-results-laboratory"/>
        </meta>
        <text>
          <status value="generated"/><div xmlns="http://www.w3.org/1999/xhtml"><a name="Observation_2565be07-47a0-4cca-926e-a57e1ac96fb8"> </a><p class="res-header-id"><b>Generated Narrative: Observation 2565be07-47a0-4cca-926e-a57e1ac96fb8</b></p><a name="2565be07-47a0-4cca-926e-a57e1ac96fb8"> </a><a name="hc2565be07-47a0-4cca-926e-a57e1ac96fb8"> </a><a name="2565be07-47a0-4cca-926e-a57e1ac96fb8-en-US"> </a><div style="display: inline-block; background-color: #d9e0e7; padding: 6px; margin: 4px; border: 1px solid #8da1b4; border-radius: 5px; line-height: 60%"><p style="margin-bottom: 0px"/><p style="margin-bottom: 0px">Profile: <a href="StructureDefinition-ch-lab-observation-results-laboratory.html">CH LAB-Report Observation Results: Laboratory Report</a></p></div><p><b>status</b>: Final</p><p><b>category</b>: <span title="Codes:{http://terminology.hl7.org/CodeSystem/observation-category laboratory}">Laboratory</span>, <span title="Codes:{http://snomed.info/sct 394916005}">Hematopathology</span>, <span title="Codes:{http://loinc.org 18723-7}">Hematology studies (set)</span></p><p><b>code</b>: <span title="Codes:{http://loinc.org 718-7}">Hemoglobin (Bld) [Mass/Vol]</span></p><p><b>subject</b>: <a href="Bundle-LabResultReport-1-tvt.html#urn-uuid-6b8a0365-5022-403b-a5a5-8d8680d701ef">Hans Guggindieluft</a></p><p><b>effective</b>: 2024-04-23 11:24:26+0100</p><p><b>performer</b>: <a href="Bundle-LabResultReport-1-tvt.html#urn-uuid-12328339-f7d6-4bb6-80e4-89fd03ce5052">Eva Erlenmeyer</a></p><p><b>value</b>: 10.8 umol/L<span style="background: LightGoldenRodYellow"> (Details: UCUM  codeumol/L = 'umol/L')</span></p><p><b>method</b>: <span title="Codes:{http://snomed.info/sct 83561000052101}">Photometry technique (qualifier value)</span></p><p><b>specimen</b>: <a href="Bundle-LabResultReport-1-tvt.html#urn-uuid-3a98a13d-cf64-40bb-b7a0-87ef45193a74">Blood sammple</a></p><h3>ReferenceRanges</h3><table class="grid"><tr><td style="display: none">-</td><td><b>Low</b></td><td><b>High</b></td></tr><tr><td style="display: none">*</td><td>8.7 umol/L</td><td>11.2 umol/L</td></tr></table></div>
        </text>
        <status value="final"/>
        <category>
          <coding>
            <system value="http://terminology.hl7.org/CodeSystem/observation-category"/>
            <code value="laboratory"/>
          </coding>
        </category>
        <category>
          <coding>
            <system value="http://snomed.info/sct"/>
            <code value="394916005"/>
            <display value="Hematopathology"/>
          </coding>
        </category>
        <category>
          <coding>
            <system value="http://loinc.org"/>
            <code value="18723-7"/>
            <display value="Hematology studies (set)"/>
          </coding>
        </category>
        <code>
          <coding>
            <system value="http://loinc.org"/>
            <code value="718-7"/>
            <display value="Hemoglobin [Mass/volume] in Blood"/>
          </coding>
          <text value="Hemoglobin (Bld) [Mass/Vol]"/>
        </code>
        <subject>
          <reference value="urn:uuid:6b8a0365-5022-403b-a5a5-8d8680d701ef"/>
          <display value="Hans Guggindieluft"/>
        </subject>
        <effectiveDateTime value="2024-04-23T11:24:26+01:00"/>
        <performer>
          <reference value="urn:uuid:12328339-f7d6-4bb6-80e4-89fd03ce5052"/>
          <display value="Eva Erlenmeyer"/>
        </performer>
        <valueQuantity>
          <value value="10.8"/>
          <unit value="umol/L"/>
          <system value="http://unitsofmeasure.org"/>
          <code value="umol/L"/>
        </valueQuantity>
        <method>
          <coding>
            <system value="http://snomed.info/sct"/>
            <code value="83561000052101"/>
            <display value="Photometry technique (qualifier value)"/>
          </coding>
        </method>
        <specimen>
          <reference value="urn:uuid:3a98a13d-cf64-40bb-b7a0-87ef45193a74"/>
          <display value="Blood sammple"/>
        </specimen>
        <referenceRange>
          <low>
            <value value="8.7"/>
            <unit value="umol/L"/>
          </low>
          <high>
            <value value="11.2"/>
            <unit value="umol/L"/>
          </high>
        </referenceRange>
      </Observation>
    </resource>
  </entry>
  <entry>
    <fullUrl value="urn:uuid:c4d64c0a-aafb-4b41-ae0b-a620b2a6c08c"/>
    <resource>
      <Observation>
        <id value="c4d64c0a-aafb-4b41-ae0b-a620b2a6c08c"/>
        <meta>
          <profile value="http://fhir.ch/ig/ch-lab-report/StructureDefinition/ch-lab-observation-results-laboratory"/>
        </meta>
        <text>
          <status value="generated"/><div xmlns="http://www.w3.org/1999/xhtml"><a name="Observation_c4d64c0a-aafb-4b41-ae0b-a620b2a6c08c"> </a><p class="res-header-id"><b>Generated Narrative: Observation c4d64c0a-aafb-4b41-ae0b-a620b2a6c08c</b></p><a name="c4d64c0a-aafb-4b41-ae0b-a620b2a6c08c"> </a><a name="hcc4d64c0a-aafb-4b41-ae0b-a620b2a6c08c"> </a><a name="c4d64c0a-aafb-4b41-ae0b-a620b2a6c08c-en-US"> </a><div style="display: inline-block; background-color: #d9e0e7; padding: 6px; margin: 4px; border: 1px solid #8da1b4; border-radius: 5px; line-height: 60%"><p style="margin-bottom: 0px"/><p style="margin-bottom: 0px">Profile: <a href="StructureDefinition-ch-lab-observation-results-laboratory.html">CH LAB-Report Observation Results: Laboratory Report</a></p></div><p><b>status</b>: Final</p><p><b>category</b>: <span title="Codes:{http://terminology.hl7.org/CodeSystem/observation-category laboratory}">Laboratory</span>, <span title="Codes:{http://snomed.info/sct 394916005}">Hematopathology</span>, <span title="Codes:{http://loinc.org 18723-7}">Hematology studies (set)</span></p><p><b>code</b>: <span title="Codes:{http://loinc.org 4544-3}">Hematocrit Auto (Bld) [Volume fraction]</span></p><p><b>subject</b>: <a href="Bundle-LabResultReport-1-tvt.html#urn-uuid-6b8a0365-5022-403b-a5a5-8d8680d701ef">Hans Guggindieluft</a></p><p><b>effective</b>: 2024-04-23 11:24:26+0100</p><p><b>performer</b>: <a href="Bundle-LabResultReport-1-tvt.html#urn-uuid-12328339-f7d6-4bb6-80e4-89fd03ce5052">Eva Erlenmeyer</a></p><p><b>value</b>: 43 %<span style="background: LightGoldenRodYellow"> (Details: UCUM  code% = '%')</span></p><p><b>specimen</b>: <a href="Bundle-LabResultReport-1-tvt.html#urn-uuid-3a98a13d-cf64-40bb-b7a0-87ef45193a74">Blood sammple</a></p><h3>ReferenceRanges</h3><table class="grid"><tr><td style="display: none">-</td><td><b>Low</b></td><td><b>High</b></td><td><b>Type</b></td></tr><tr><td style="display: none">*</td><td>38 %</td><td>46 %</td><td><span title="Codes:{http://terminology.hl7.org/CodeSystem/referencerange-meaning normal}">Normal Range</span></td></tr></table></div>
        </text>
        <status value="final"/>
        <category>
          <coding>
            <system value="http://terminology.hl7.org/CodeSystem/observation-category"/>
            <code value="laboratory"/>
          </coding>
        </category>
        <category>
          <coding>
            <system value="http://snomed.info/sct"/>
            <code value="394916005"/>
            <display value="Hematopathology"/>
          </coding>
        </category>
        <category>
          <coding>
            <system value="http://loinc.org"/>
            <code value="18723-7"/>
            <display value="Hematology studies (set)"/>
          </coding>
        </category>
        <code>
          <coding>
            <system value="http://loinc.org"/>
            <code value="4544-3"/>
            <display value="Hematocrit [Volume Fraction] of Blood by Automated count"/>
          </coding>
          <text value="Hematocrit Auto (Bld) [Volume fraction]"/>
        </code>
        <subject>
          <reference value="urn:uuid:6b8a0365-5022-403b-a5a5-8d8680d701ef"/>
          <display value="Hans Guggindieluft"/>
        </subject>
        <effectiveDateTime value="2024-04-23T11:24:26+01:00"/>
        <performer>
          <reference value="urn:uuid:12328339-f7d6-4bb6-80e4-89fd03ce5052"/>
          <display value="Eva Erlenmeyer"/>
        </performer>
        <valueQuantity>
          <value value="43"/>
          <unit value="%"/>
          <system value="http://unitsofmeasure.org"/>
          <code value="%"/>
        </valueQuantity>
        <specimen>
          <reference value="urn:uuid:3a98a13d-cf64-40bb-b7a0-87ef45193a74"/>
          <display value="Blood sammple"/>
        </specimen>
        <referenceRange>
          <low>
            <value value="38"/>
            <unit value="%"/>
          </low>
          <high>
            <value value="46"/>
            <unit value="%"/>
          </high>
          <type>
            <coding>
              <system value="http://terminology.hl7.org/CodeSystem/referencerange-meaning"/>
              <code value="normal"/>
              <display value="Normal Range"/>
            </coding>
            <text value="Normal Range"/>
          </type>
        </referenceRange>
      </Observation>
    </resource>
  </entry>
  <entry>
    <fullUrl value="urn:uuid:857cfa10-66ea-45ae-b236-e6e03af4be3f"/>
    <resource>
      <Observation>
        <id value="857cfa10-66ea-45ae-b236-e6e03af4be3f"/>
        <meta>
          <profile value="http://fhir.ch/ig/ch-lab-report/StructureDefinition/ch-lab-observation-results-laboratory"/>
        </meta>
        <text>
          <status value="generated"/><div xmlns="http://www.w3.org/1999/xhtml"><a name="Observation_857cfa10-66ea-45ae-b236-e6e03af4be3f"> </a><p class="res-header-id"><b>Generated Narrative: Observation 857cfa10-66ea-45ae-b236-e6e03af4be3f</b></p><a name="857cfa10-66ea-45ae-b236-e6e03af4be3f"> </a><a name="hc857cfa10-66ea-45ae-b236-e6e03af4be3f"> </a><a name="857cfa10-66ea-45ae-b236-e6e03af4be3f-en-US"> </a><div style="display: inline-block; background-color: #d9e0e7; padding: 6px; margin: 4px; border: 1px solid #8da1b4; border-radius: 5px; line-height: 60%"><p style="margin-bottom: 0px"/><p style="margin-bottom: 0px">Profile: <a href="StructureDefinition-ch-lab-observation-results-laboratory.html">CH LAB-Report Observation Results: Laboratory Report</a></p></div><p><b>status</b>: Final</p><p><b>category</b>: <span title="Codes:{http://terminology.hl7.org/CodeSystem/observation-category laboratory}">Laboratory</span>, <span title="Codes:{http://snomed.info/sct 394916005}">Hematopathology</span>, <span title="Codes:{http://loinc.org 18723-7}">Hematology studies (set)</span></p><p><b>code</b>: <span title="Codes:{http://loinc.org 787-2}">MCV Auto (RBC) [Entitic vol]</span></p><p><b>subject</b>: <a href="Bundle-LabResultReport-1-tvt.html#urn-uuid-6b8a0365-5022-403b-a5a5-8d8680d701ef">Hans Guggindieluft</a></p><p><b>effective</b>: 2024-04-23 11:24:26+0100</p><p><b>performer</b>: <a href="Bundle-LabResultReport-1-tvt.html#urn-uuid-12328339-f7d6-4bb6-80e4-89fd03ce5052">Eva Erlenmeyer</a></p><p><b>value</b>: 85 fL<span style="background: LightGoldenRodYellow"> (Details: UCUM  codefL = 'fL')</span></p><h3>ReferenceRanges</h3><table class="grid"><tr><td style="display: none">-</td><td><b>Low</b></td><td><b>High</b></td><td><b>Type</b></td></tr><tr><td style="display: none">*</td><td>82.4 fL</td><td>87.3 fL</td><td><span title="Codes:{http://terminology.hl7.org/CodeSystem/referencerange-meaning normal}">Normal Range</span></td></tr></table></div>
        </text>
        <status value="final"/>
        <category>
          <coding>
            <system value="http://terminology.hl7.org/CodeSystem/observation-category"/>
            <code value="laboratory"/>
          </coding>
        </category>
        <category>
          <coding>
            <system value="http://snomed.info/sct"/>
            <code value="394916005"/>
            <display value="Hematopathology"/>
          </coding>
        </category>
        <category>
          <coding>
            <system value="http://loinc.org"/>
            <code value="18723-7"/>
            <display value="Hematology studies (set)"/>
          </coding>
        </category>
        <code>
          <coding>
            <system value="http://loinc.org"/>
            <code value="787-2"/>
            <display value="MCV [Entitic mean volume] in Red Blood Cells by Automated count"/>
          </coding>
          <text value="MCV Auto (RBC) [Entitic vol]"/>
        </code>
        <subject>
          <reference value="urn:uuid:6b8a0365-5022-403b-a5a5-8d8680d701ef"/>
          <display value="Hans Guggindieluft"/>
        </subject>
        <effectiveDateTime value="2024-04-23T11:24:26+01:00"/>
        <performer>
          <reference value="urn:uuid:12328339-f7d6-4bb6-80e4-89fd03ce5052"/>
          <display value="Eva Erlenmeyer"/>
        </performer>
        <valueQuantity>
          <value value="85"/>
          <unit value="fL"/>
          <system value="http://unitsofmeasure.org"/>
          <code value="fL"/>
        </valueQuantity>
        <referenceRange>
          <low>
            <value value="82.4"/>
            <unit value="fL"/>
          </low>
          <high>
            <value value="87.3"/>
            <unit value="fL"/>
          </high>
          <type>
            <coding>
              <system value="http://terminology.hl7.org/CodeSystem/referencerange-meaning"/>
              <code value="normal"/>
              <display value="Normal Range"/>
            </coding>
            <text value="Normal Range"/>
          </type>
        </referenceRange>
      </Observation>
    </resource>
  </entry>
  <entry>
    <fullUrl value="urn:uuid:3b263f29-44d8-468f-b612-e748442e1845"/>
    <resource>
      <Observation>
        <id value="3b263f29-44d8-468f-b612-e748442e1845"/>
        <meta>
          <profile value="http://fhir.ch/ig/ch-lab-report/StructureDefinition/ch-lab-observation-results-laboratory"/>
        </meta>
        <text>
          <status value="generated"/><div xmlns="http://www.w3.org/1999/xhtml"><a name="Observation_3b263f29-44d8-468f-b612-e748442e1845"> </a><p class="res-header-id"><b>Generated Narrative: Observation 3b263f29-44d8-468f-b612-e748442e1845</b></p><a name="3b263f29-44d8-468f-b612-e748442e1845"> </a><a name="hc3b263f29-44d8-468f-b612-e748442e1845"> </a><a name="3b263f29-44d8-468f-b612-e748442e1845-en-US"> </a><div style="display: inline-block; background-color: #d9e0e7; padding: 6px; margin: 4px; border: 1px solid #8da1b4; border-radius: 5px; line-height: 60%"><p style="margin-bottom: 0px"/><p style="margin-bottom: 0px">Profile: <a href="StructureDefinition-ch-lab-observation-results-laboratory.html">CH LAB-Report Observation Results: Laboratory Report</a></p></div><p><b>status</b>: Final</p><p><b>category</b>: <span title="Codes:{http://terminology.hl7.org/CodeSystem/observation-category laboratory}">Laboratory</span>, <span title="Codes:{http://snomed.info/sct 394916005}">Hematopathology</span>, <span title="Codes:{http://loinc.org 18723-7}">Hematology studies (set)</span></p><p><b>code</b>: <span title="Codes:{http://loinc.org 785-6}">MCH Auto (RBC) [Entitic mass]</span></p><p><b>subject</b>: <a href="Bundle-LabResultReport-1-tvt.html#urn-uuid-6b8a0365-5022-403b-a5a5-8d8680d701ef">Hans Guggindieluft</a></p><p><b>effective</b>: 2024-04-23 11:24:26+0100</p><p><b>performer</b>: <a href="Bundle-LabResultReport-1-tvt.html#urn-uuid-12328339-f7d6-4bb6-80e4-89fd03ce5052">Eva Erlenmeyer</a></p><p><b>value</b>: 30 pg<span style="background: LightGoldenRodYellow"> (Details: UCUM  codepg = 'pg')</span></p><h3>ReferenceRanges</h3><table class="grid"><tr><td style="display: none">-</td><td><b>Low</b></td><td><b>High</b></td><td><b>Type</b></td></tr><tr><td style="display: none">*</td><td>38 pg</td><td>46 pg</td><td><span title="Codes:{http://terminology.hl7.org/CodeSystem/referencerange-meaning normal}">Normal Range</span></td></tr></table></div>
        </text>
        <status value="final"/>
        <category>
          <coding>
            <system value="http://terminology.hl7.org/CodeSystem/observation-category"/>
            <code value="laboratory"/>
          </coding>
        </category>
        <category>
          <coding>
            <system value="http://snomed.info/sct"/>
            <code value="394916005"/>
            <display value="Hematopathology"/>
          </coding>
        </category>
        <category>
          <coding>
            <system value="http://loinc.org"/>
            <code value="18723-7"/>
            <display value="Hematology studies (set)"/>
          </coding>
        </category>
        <code>
          <coding>
            <system value="http://loinc.org"/>
            <code value="785-6"/>
            <display value="MCH [Entitic mass] by Automated count"/>
          </coding>
          <text value="MCH Auto (RBC) [Entitic mass]"/>
        </code>
        <subject>
          <reference value="urn:uuid:6b8a0365-5022-403b-a5a5-8d8680d701ef"/>
          <display value="Hans Guggindieluft"/>
        </subject>
        <effectiveDateTime value="2024-04-23T11:24:26+01:00"/>
        <performer>
          <reference value="urn:uuid:12328339-f7d6-4bb6-80e4-89fd03ce5052"/>
          <display value="Eva Erlenmeyer"/>
        </performer>
        <valueQuantity>
          <value value="30"/>
          <unit value="pg"/>
          <system value="http://unitsofmeasure.org"/>
          <code value="pg"/>
        </valueQuantity>
        <referenceRange>
          <low>
            <value value="38"/>
            <unit value="pg"/>
          </low>
          <high>
            <value value="46"/>
            <unit value="pg"/>
          </high>
          <type>
            <coding>
              <system value="http://terminology.hl7.org/CodeSystem/referencerange-meaning"/>
              <code value="normal"/>
              <display value="Normal Range"/>
            </coding>
            <text value="Normal Range"/>
          </type>
        </referenceRange>
      </Observation>
    </resource>
  </entry>
  <entry>
    <fullUrl value="urn:uuid:735c9244-497a-420d-b006-15a57be365b1"/>
    <resource>
      <Observation>
        <id value="735c9244-497a-420d-b006-15a57be365b1"/>
        <meta>
          <profile value="http://fhir.ch/ig/ch-lab-report/StructureDefinition/ch-lab-observation-results-laboratory"/>
        </meta>
        <text>
          <status value="generated"/><div xmlns="http://www.w3.org/1999/xhtml"><a name="Observation_735c9244-497a-420d-b006-15a57be365b1"> </a><p class="res-header-id"><b>Generated Narrative: Observation 735c9244-497a-420d-b006-15a57be365b1</b></p><a name="735c9244-497a-420d-b006-15a57be365b1"> </a><a name="hc735c9244-497a-420d-b006-15a57be365b1"> </a><a name="735c9244-497a-420d-b006-15a57be365b1-en-US"> </a><div style="display: inline-block; background-color: #d9e0e7; padding: 6px; margin: 4px; border: 1px solid #8da1b4; border-radius: 5px; line-height: 60%"><p style="margin-bottom: 0px"/><p style="margin-bottom: 0px">Profile: <a href="StructureDefinition-ch-lab-observation-results-laboratory.html">CH LAB-Report Observation Results: Laboratory Report</a></p></div><p><b>status</b>: Final</p><p><b>category</b>: <span title="Codes:{http://terminology.hl7.org/CodeSystem/observation-category laboratory}">Laboratory</span>, <span title="Codes:{http://snomed.info/sct 394916005}">Hematopathology</span>, <span title="Codes:{http://loinc.org 18723-7}">Hematology studies (set)</span></p><p><b>code</b>: <span title="Codes:{http://loinc.org 786-4}">MCHC Auto (RBC) [Mass/Vol]</span></p><p><b>subject</b>: <a href="Bundle-LabResultReport-1-tvt.html#urn-uuid-6b8a0365-5022-403b-a5a5-8d8680d701ef">Hans Guggindieluft</a></p><p><b>effective</b>: 2024-04-23 11:24:26+0100</p><p><b>performer</b>: <a href="Bundle-LabResultReport-1-tvt.html#urn-uuid-12328339-f7d6-4bb6-80e4-89fd03ce5052">Eva Erlenmeyer</a></p><p><b>value</b>: 34.7 g/dL<span style="background: LightGoldenRodYellow"> (Details: UCUM  codeg/dL = 'g/dL')</span></p><h3>ReferenceRanges</h3><table class="grid"><tr><td style="display: none">-</td><td><b>Low</b></td><td><b>High</b></td><td><b>Type</b></td></tr><tr><td style="display: none">*</td><td>30 g/dL</td><td>34 g/dL</td><td><span title="Codes:{http://terminology.hl7.org/CodeSystem/referencerange-meaning normal}">Normal Range</span></td></tr></table></div>
        </text>
        <status value="final"/>
        <category>
          <coding>
            <system value="http://terminology.hl7.org/CodeSystem/observation-category"/>
            <code value="laboratory"/>
          </coding>
        </category>
        <category>
          <coding>
            <system value="http://snomed.info/sct"/>
            <code value="394916005"/>
            <display value="Hematopathology"/>
          </coding>
        </category>
        <category>
          <coding>
            <system value="http://loinc.org"/>
            <code value="18723-7"/>
            <display value="Hematology studies (set)"/>
          </coding>
        </category>
        <code>
          <coding>
            <system value="http://loinc.org"/>
            <code value="786-4"/>
            <display value="MCHC [Entitic Mass/volume] in Red Blood Cells by Automated count"/>
          </coding>
          <text value="MCHC Auto (RBC) [Mass/Vol]"/>
        </code>
        <subject>
          <reference value="urn:uuid:6b8a0365-5022-403b-a5a5-8d8680d701ef"/>
          <display value="Hans Guggindieluft"/>
        </subject>
        <effectiveDateTime value="2024-04-23T11:24:26+01:00"/>
        <performer>
          <reference value="urn:uuid:12328339-f7d6-4bb6-80e4-89fd03ce5052"/>
          <display value="Eva Erlenmeyer"/>
        </performer>
        <valueQuantity>
          <value value="34.7"/>
          <unit value="g/dL"/>
          <system value="http://unitsofmeasure.org"/>
          <code value="g/dL"/>
        </valueQuantity>
        <referenceRange>
          <low>
            <value value="30"/>
            <unit value="g/dL"/>
          </low>
          <high>
            <value value="34"/>
            <unit value="g/dL"/>
          </high>
          <type>
            <coding>
              <system value="http://terminology.hl7.org/CodeSystem/referencerange-meaning"/>
              <code value="normal"/>
              <display value="Normal Range"/>
            </coding>
            <text value="Normal Range"/>
          </type>
        </referenceRange>
      </Observation>
    </resource>
  </entry>
  <entry>
    <fullUrl value="urn:uuid:32a7d6fb-dc8a-4673-8cef-c59c1c5397db"/>
    <resource>
      <Observation>
        <id value="32a7d6fb-dc8a-4673-8cef-c59c1c5397db"/>
        <meta>
          <profile value="http://fhir.ch/ig/ch-lab-report/StructureDefinition/ch-lab-observation-results-laboratory"/>
        </meta>
        <text>
          <status value="generated"/><div xmlns="http://www.w3.org/1999/xhtml"><a name="Observation_32a7d6fb-dc8a-4673-8cef-c59c1c5397db"> </a><p class="res-header-id"><b>Generated Narrative: Observation 32a7d6fb-dc8a-4673-8cef-c59c1c5397db</b></p><a name="32a7d6fb-dc8a-4673-8cef-c59c1c5397db"> </a><a name="hc32a7d6fb-dc8a-4673-8cef-c59c1c5397db"> </a><a name="32a7d6fb-dc8a-4673-8cef-c59c1c5397db-en-US"> </a><div style="display: inline-block; background-color: #d9e0e7; padding: 6px; margin: 4px; border: 1px solid #8da1b4; border-radius: 5px; line-height: 60%"><p style="margin-bottom: 0px"/><p style="margin-bottom: 0px">Profile: <a href="StructureDefinition-ch-lab-observation-results-laboratory.html">CH LAB-Report Observation Results: Laboratory Report</a></p></div><p><b>status</b>: Final</p><p><b>category</b>: <span title="Codes:{http://terminology.hl7.org/CodeSystem/observation-category laboratory}">Laboratory</span>, <span title="Codes:{http://snomed.info/sct 394916005}">Hematopathology</span>, <span title="Codes:{http://loinc.org 18723-7}">Hematology studies (set)</span></p><p><b>code</b>: <span title="Codes:{http://loinc.org 777-3}">Platelets Auto (Bld) [#/Vol]</span></p><p><b>subject</b>: <a href="Bundle-LabResultReport-1-tvt.html#urn-uuid-6b8a0365-5022-403b-a5a5-8d8680d701ef">Hans Guggindieluft</a></p><p><b>effective</b>: 2024-04-23 11:24:26+0100</p><p><b>performer</b>: <a href="Bundle-LabResultReport-1-tvt.html#urn-uuid-12328339-f7d6-4bb6-80e4-89fd03ce5052">Eva Erlenmeyer</a></p><p><b>value</b>: 200 10*3/uL<span style="background: LightGoldenRodYellow"> (Details: UCUM  code10*3/uL = '10*3/uL')</span></p><h3>ReferenceRanges</h3><table class="grid"><tr><td style="display: none">-</td><td><b>Low</b></td><td><b>High</b></td><td><b>Type</b></td></tr><tr><td style="display: none">*</td><td>150 10*3/uL</td><td>450 10*3/uL</td><td><span title="Codes:{http://terminology.hl7.org/CodeSystem/referencerange-meaning normal}">Normal Range</span></td></tr></table></div>
        </text>
        <status value="final"/>
        <category>
          <coding>
            <system value="http://terminology.hl7.org/CodeSystem/observation-category"/>
            <code value="laboratory"/>
          </coding>
        </category>
        <category>
          <coding>
            <system value="http://snomed.info/sct"/>
            <code value="394916005"/>
            <display value="Hematopathology"/>
          </coding>
        </category>
        <category>
          <coding>
            <system value="http://loinc.org"/>
            <code value="18723-7"/>
            <display value="Hematology studies (set)"/>
          </coding>
        </category>
        <code>
          <coding>
            <system value="http://loinc.org"/>
            <code value="777-3"/>
            <display value="Platelets [#/volume] in Blood by Automated count"/>
          </coding>
          <text value="Platelets Auto (Bld) [#/Vol]"/>
        </code>
        <subject>
          <reference value="urn:uuid:6b8a0365-5022-403b-a5a5-8d8680d701ef"/>
          <display value="Hans Guggindieluft"/>
        </subject>
        <effectiveDateTime value="2024-04-23T11:24:26+01:00"/>
        <performer>
          <reference value="urn:uuid:12328339-f7d6-4bb6-80e4-89fd03ce5052"/>
          <display value="Eva Erlenmeyer"/>
        </performer>
        <valueQuantity>
          <value value="200"/>
          <unit value="10*3/uL"/>
          <system value="http://unitsofmeasure.org"/>
          <code value="10*3/uL"/>
        </valueQuantity>
        <referenceRange>
          <low>
            <value value="150"/>
            <unit value="10*3/uL"/>
          </low>
          <high>
            <value value="450"/>
            <unit value="10*3/uL"/>
          </high>
          <type>
            <coding>
              <system value="http://terminology.hl7.org/CodeSystem/referencerange-meaning"/>
              <code value="normal"/>
              <display value="Normal Range"/>
            </coding>
            <text value="Normal Range"/>
          </type>
        </referenceRange>
      </Observation>
    </resource>
  </entry>
  <entry>
    <fullUrl value="urn:uuid:c0eeeb40-77ed-46f3-b8d6-5fdac0a61f7c"/>
    <resource>
      <Observation>
        <id value="c0eeeb40-77ed-46f3-b8d6-5fdac0a61f7c"/>
        <meta>
          <profile value="http://fhir.ch/ig/ch-lab-report/StructureDefinition/ch-lab-observation-results-laboratory"/>
        </meta>
        <text>
          <status value="generated"/><div xmlns="http://www.w3.org/1999/xhtml"><a name="Observation_c0eeeb40-77ed-46f3-b8d6-5fdac0a61f7c"> </a><p class="res-header-id"><b>Generated Narrative: Observation c0eeeb40-77ed-46f3-b8d6-5fdac0a61f7c</b></p><a name="c0eeeb40-77ed-46f3-b8d6-5fdac0a61f7c"> </a><a name="hcc0eeeb40-77ed-46f3-b8d6-5fdac0a61f7c"> </a><a name="c0eeeb40-77ed-46f3-b8d6-5fdac0a61f7c-en-US"> </a><div style="display: inline-block; background-color: #d9e0e7; padding: 6px; margin: 4px; border: 1px solid #8da1b4; border-radius: 5px; line-height: 60%"><p style="margin-bottom: 0px"/><p style="margin-bottom: 0px">Profile: <a href="StructureDefinition-ch-lab-observation-results-laboratory.html">CH LAB-Report Observation Results: Laboratory Report</a></p></div><p><b>status</b>: Final</p><p><b>category</b>: <span title="Codes:{http://terminology.hl7.org/CodeSystem/observation-category laboratory}">Laboratory</span>, <span title="Codes:{http://snomed.info/sct 394596001}">Chemical pathology</span>, <span title="Codes:{http://loinc.org 18719-5}">Chemistry studies (set)</span></p><p><b>code</b>: <span title="Codes:{http://loinc.org 1988-5}">CRP [Mass/Vol]</span></p><p><b>subject</b>: <a href="Bundle-LabResultReport-1-tvt.html#urn-uuid-6b8a0365-5022-403b-a5a5-8d8680d701ef">Hans Guggindieluft</a></p><p><b>effective</b>: 2024-04-23 11:24:26+0100</p><p><b>performer</b>: <a href="Bundle-LabResultReport-1-tvt.html#urn-uuid-12328339-f7d6-4bb6-80e4-89fd03ce5052">Eva Erlenmeyer</a></p><p><b>value</b>: 8 mg/L<span style="background: LightGoldenRodYellow"> (Details: UCUM  codemg/L = 'mg/L')</span></p><p><b>method</b>: <span title="Codes:{http://snomed.info/sct 83611000052104}">Turbidimetry technique (qualifier value)</span></p><p><b>specimen</b>: <a href="Bundle-LabResultReport-1-tvt.html#urn-uuid-9b554309-f9d4-4559-ba81-91659cd11786">Serum Sample</a></p><p><b>device</b>: <a href="Bundle-LabResultReport-1-tvt.html#urn-uuid-729d1c62-051e-4e3a-80d4-06f861b2a794">Afinion™ CRP Test</a></p><h3>ReferenceRanges</h3><table class="grid"><tr><td style="display: none">-</td><td><b>High</b></td></tr><tr><td style="display: none">*</td><td>10 mg/L</td></tr></table></div>
        </text>
        <status value="final"/>
        <category>
          <coding>
            <system value="http://terminology.hl7.org/CodeSystem/observation-category"/>
            <code value="laboratory"/>
          </coding>
        </category>
        <category>
          <coding>
            <system value="http://snomed.info/sct"/>
            <code value="394596001"/>
          </coding>
          <text value="Chemical pathology"/>
        </category>
        <category>
          <coding>
            <system value="http://loinc.org"/>
            <code value="18719-5"/>
            <display value="Chemistry studies (set)"/>
          </coding>
          <text value="Chemistry studies (set)"/>
        </category>
        <code>
          <coding>
            <system value="http://loinc.org"/>
            <code value="1988-5"/>
            <display value="C reactive protein [Mass/volume] in Serum or Plasma"/>
          </coding>
          <text value="CRP [Mass/Vol]"/>
        </code>
        <subject>
          <reference value="urn:uuid:6b8a0365-5022-403b-a5a5-8d8680d701ef"/>
          <display value="Hans Guggindieluft"/>
        </subject>
        <effectiveDateTime value="2024-04-23T11:24:26+01:00"/>
        <performer>
          <reference value="urn:uuid:12328339-f7d6-4bb6-80e4-89fd03ce5052"/>
          <display value="Eva Erlenmeyer"/>
        </performer>
        <valueQuantity>
          <value value="8"/>
          <unit value="mg/L"/>
          <system value="http://unitsofmeasure.org"/>
          <code value="mg/L"/>
        </valueQuantity>
        <method>
          <coding>
            <system value="http://snomed.info/sct"/>
            <code value="83611000052104"/>
            <display value="Turbidimetry technique (qualifier value)"/>
          </coding>
        </method>
        <specimen>
          <reference value="urn:uuid:9b554309-f9d4-4559-ba81-91659cd11786"/>
          <display value="Serum Sample"/>
        </specimen>
        <device>
          <reference value="urn:uuid:729d1c62-051e-4e3a-80d4-06f861b2a794"/>
          <display value="Afinion™ CRP Test"/>
        </device>
        <referenceRange>
          <high>
            <value value="10"/>
            <unit value="mg/L"/>
          </high>
        </referenceRange>
      </Observation>
    </resource>
  </entry>
  <entry>
    <fullUrl value="urn:uuid:f30d8df7-474f-401e-b5d4-f690d28d718d"/>
    <resource>
      <Observation>
        <id value="f30d8df7-474f-401e-b5d4-f690d28d718d"/>
        <meta>
          <profile value="http://fhir.ch/ig/ch-lab-report/StructureDefinition/ch-lab-observation-results-laboratory"/>
        </meta>
        <text>
          <status value="generated"/><div xmlns="http://www.w3.org/1999/xhtml"><a name="Observation_f30d8df7-474f-401e-b5d4-f690d28d718d"> </a><p class="res-header-id"><b>Generated Narrative: Observation f30d8df7-474f-401e-b5d4-f690d28d718d</b></p><a name="f30d8df7-474f-401e-b5d4-f690d28d718d"> </a><a name="hcf30d8df7-474f-401e-b5d4-f690d28d718d"> </a><a name="f30d8df7-474f-401e-b5d4-f690d28d718d-en-US"> </a><div style="display: inline-block; background-color: #d9e0e7; padding: 6px; margin: 4px; border: 1px solid #8da1b4; border-radius: 5px; line-height: 60%"><p style="margin-bottom: 0px"/><p style="margin-bottom: 0px">Profile: <a href="StructureDefinition-ch-lab-observation-results-laboratory.html">CH LAB-Report Observation Results: Laboratory Report</a></p></div><p><b>status</b>: Final</p><p><b>category</b>: <span title="Codes:{http://terminology.hl7.org/CodeSystem/observation-category laboratory}">Laboratory</span>, <span title="Codes:{http://snomed.info/sct 394916005}">Hematopathology</span>, <span title="Codes:{http://loinc.org 18723-7}">Hematology studies (set)</span></p><p><b>code</b>: <span title="Codes:{http://loinc.org 71427-9}">Fibrin D-dimer FEU IA (Bld) [Mass/Vol]</span></p><p><b>subject</b>: <a href="Bundle-LabResultReport-1-tvt.html#urn-uuid-6b8a0365-5022-403b-a5a5-8d8680d701ef">Hans Guggindieluft</a></p><p><b>effective</b>: 2024-04-23 11:24:26+0100</p><p><b>performer</b>: <a href="Bundle-LabResultReport-1-tvt.html#urn-uuid-12328339-f7d6-4bb6-80e4-89fd03ce5052">Eva Erlenmeyer</a></p><p><b>value</b>: 1.8 mg/L<span style="background: LightGoldenRodYellow"> (Details: UCUM  codemg/L = 'mg/L')</span></p><p><b>interpretation</b>: <span title="Codes:{http://terminology.hl7.org/CodeSystem/v3-ObservationInterpretation HH}">Critical high</span></p><p><b>method</b>: <span title="Codes:{http://snomed.info/sct 726449005}">Immunoassay technique (qualifier value)</span></p><p><b>specimen</b>: <a href="Bundle-LabResultReport-1-tvt.html#urn-uuid-8d38e1bd-dced-45c1-8978-949d6cfd21e8">Blood Sample Coagulation</a></p><p><b>device</b>: <a href="Bundle-LabResultReport-1-tvt.html#urn-uuid-523fa1b9-f24d-4ae6-aa98-92d7f57b2066">Roche CARDIAC D-Dimer Testkit</a></p><h3>ReferenceRanges</h3><table class="grid"><tr><td style="display: none">-</td><td><b>High</b></td></tr><tr><td style="display: none">*</td><td>0.5 mg/L</td></tr></table></div>
        </text>
        <status value="final"/>
        <category>
          <coding>
            <system value="http://terminology.hl7.org/CodeSystem/observation-category"/>
            <code value="laboratory"/>
          </coding>
        </category>
        <category>
          <coding>
            <system value="http://snomed.info/sct"/>
            <code value="394916005"/>
            <display value="Hematopathology"/>
          </coding>
        </category>
        <category>
          <coding>
            <system value="http://loinc.org"/>
            <code value="18723-7"/>
            <display value="Hematology studies (set)"/>
          </coding>
        </category>
        <code>
          <coding>
            <system value="http://loinc.org"/>
            <code value="71427-9"/>
            <display value="Fibrin D-dimer [Mass/volume] in Blood by Rapid immunoassay"/>
          </coding>
          <text value="Fibrin D-dimer FEU IA (Bld) [Mass/Vol]"/>
        </code>
        <subject>
          <reference value="urn:uuid:6b8a0365-5022-403b-a5a5-8d8680d701ef"/>
          <display value="Hans Guggindieluft"/>
        </subject>
        <effectiveDateTime value="2024-04-23T11:24:26+01:00"/>
        <performer>
          <reference value="urn:uuid:12328339-f7d6-4bb6-80e4-89fd03ce5052"/>
          <display value="Eva Erlenmeyer"/>
        </performer>
        <valueQuantity>
          <value value="1.8"/>
          <unit value="mg/L"/>
          <system value="http://unitsofmeasure.org"/>
          <code value="mg/L"/>
        </valueQuantity>
        <interpretation>
          <coding>
            <system value="http://terminology.hl7.org/CodeSystem/v3-ObservationInterpretation"/>
            <code value="HH"/>
            <display value="Critical high"/>
          </coding>
        </interpretation>
        <method>
          <coding>
            <system value="http://snomed.info/sct"/>
            <code value="726449005"/>
            <display value="Immunoassay technique (qualifier value)"/>
          </coding>
        </method>
        <specimen>
          <reference value="urn:uuid:8d38e1bd-dced-45c1-8978-949d6cfd21e8"/>
          <display value="Blood Sample Coagulation"/>
        </specimen>
        <device>
          <reference value="urn:uuid:523fa1b9-f24d-4ae6-aa98-92d7f57b2066"/>
          <display value="Roche CARDIAC D-Dimer Testkit"/>
        </device>
        <referenceRange>
          <high>
            <value value="0.5"/>
            <unit value="mg/L"/>
          </high>
        </referenceRange>
      </Observation>
    </resource>
  </entry>
  <entry>
    <fullUrl value="urn:uuid:3a98a13d-cf64-40bb-b7a0-87ef45193a74"/>
    <resource>
      <Specimen>
        <id value="3a98a13d-cf64-40bb-b7a0-87ef45193a74"/>
        <meta>
          <profile value="http://fhir.ch/ig/ch-lab-report/StructureDefinition/ch-lab-specimen"/>
        </meta>
        <text>
          <status value="generated"/><div xmlns="http://www.w3.org/1999/xhtml"><a name="Specimen_3a98a13d-cf64-40bb-b7a0-87ef45193a74"> </a><p class="res-header-id"><b>Generated Narrative: Specimen 3a98a13d-cf64-40bb-b7a0-87ef45193a74</b></p><a name="3a98a13d-cf64-40bb-b7a0-87ef45193a74"> </a><a name="hc3a98a13d-cf64-40bb-b7a0-87ef45193a74"> </a><a name="3a98a13d-cf64-40bb-b7a0-87ef45193a74-en-US"> </a><div style="display: inline-block; background-color: #d9e0e7; padding: 6px; margin: 4px; border: 1px solid #8da1b4; border-radius: 5px; line-height: 60%"><p style="margin-bottom: 0px"/><p style="margin-bottom: 0px">Profile: <a href="StructureDefinition-ch-lab-specimen.html">CH LAB-Report Specimen</a></p></div><p><b>status</b>: Available</p><p><b>type</b>: <span title="Codes:{http://snomed.info/sct 119297000}">Blood specimen</span></p><p><b>subject</b>: <a href="Bundle-LabResultReport-1-tvt.html#urn-uuid-6b8a0365-5022-403b-a5a5-8d8680d701ef">Hans Guggindieluft</a></p><h3>Collections</h3><table class="grid"><tr><td style="display: none">-</td><td><b>Collector</b></td><td><b>Collected[x]</b></td><td><b>BodySite</b></td></tr><tr><td style="display: none">*</td><td><a href="Bundle-LabResultReport-1-tvt.html#urn-uuid-e23d6fa1-88bc-497c-a4df-eb3fa60eaa37">Dr. med. Marc Mustermann</a></td><td>2024-04-16 06:40:17+0000</td><td><span title="Codes:{http://snomed.info/sct 721029009}">Structure of superficial vein of left upper limb (body structure)</span></td></tr></table><h3>Containers</h3><table class="grid"><tr><td style="display: none">-</td><td><b>Type</b></td></tr><tr><td style="display: none">*</td><td><span title="Codes:{http://snomed.info/sct 706053007}">General specimen container</span></td></tr></table><p><b>note</b>: Specimen is grossly lipemic</p></div>
        </text>
        <status value="available"/>
        <type>
          <coding>
            <system value="http://snomed.info/sct"/>
            <code value="119297000"/>
            <display value="Blood specimen"/>
          </coding>
        </type>
        <subject>
          <reference value="urn:uuid:6b8a0365-5022-403b-a5a5-8d8680d701ef"/>
          <display value="Hans Guggindieluft"/>
        </subject>
        <collection>
          <collector>
            <reference value="urn:uuid:e23d6fa1-88bc-497c-a4df-eb3fa60eaa37"/>
            <display value="Dr. med. Marc Mustermann"/>
          </collector>
          <collectedDateTime value="2024-04-16T06:40:17Z"/>
          <bodySite>
            <coding>
              <system value="http://snomed.info/sct"/>
              <code value="721029009"/>
              <display value="Structure of superficial vein of left upper limb (body structure)"/>
            </coding>
          </bodySite>
        </collection>
        <container>
          <type>
            <coding>
              <system value="http://snomed.info/sct"/>
              <code value="706053007"/>
              <display value="General specimen container"/>
            </coding>
          </type>
        </container>
        <note>
          <text value="Specimen is grossly lipemic"/>
        </note>
      </Specimen>
    </resource>
  </entry>
  <entry>
    <fullUrl value="urn:uuid:8d38e1bd-dced-45c1-8978-949d6cfd21e8"/>
    <resource>
      <Specimen>
        <id value="8d38e1bd-dced-45c1-8978-949d6cfd21e8"/>
        <meta>
          <profile value="http://fhir.ch/ig/ch-lab-report/StructureDefinition/ch-lab-specimen"/>
        </meta>
        <text>
          <status value="generated"/><div xmlns="http://www.w3.org/1999/xhtml"><a name="Specimen_8d38e1bd-dced-45c1-8978-949d6cfd21e8"> </a><p class="res-header-id"><b>Generated Narrative: Specimen 8d38e1bd-dced-45c1-8978-949d6cfd21e8</b></p><a name="8d38e1bd-dced-45c1-8978-949d6cfd21e8"> </a><a name="hc8d38e1bd-dced-45c1-8978-949d6cfd21e8"> </a><a name="8d38e1bd-dced-45c1-8978-949d6cfd21e8-en-US"> </a><div style="display: inline-block; background-color: #d9e0e7; padding: 6px; margin: 4px; border: 1px solid #8da1b4; border-radius: 5px; line-height: 60%"><p style="margin-bottom: 0px"/><p style="margin-bottom: 0px">Profile: <a href="StructureDefinition-ch-lab-specimen.html">CH LAB-Report Specimen</a></p></div><p><b>identifier</b>: 48736-55555-75465</p><p><b>accessionIdentifier</b>: 4e88a-66666-dd888</p><p><b>status</b>: Available</p><p><b>type</b>: <span title="Codes:{http://snomed.info/sct 119297000}">Blood specimen</span></p><p><b>subject</b>: <a href="Bundle-LabResultReport-1-tvt.html#urn-uuid-6b8a0365-5022-403b-a5a5-8d8680d701ef">Hans Guggindieluft</a></p><p><b>receivedTime</b>: 2020-08-16 16:40:17+0000</p><h3>Collections</h3><table class="grid"><tr><td style="display: none">-</td><td><b>Collector</b></td><td><b>Collected[x]</b></td></tr><tr><td style="display: none">*</td><td><a href="Bundle-LabResultReport-1-tvt.html#urn-uuid-017e8e32-2f3b-4bef-baf1-92c7278a7048">Bundle: identifier = http://example.org#e65fa2fa-c130-4097-9848-486ee61f58df; type = document; timestamp = 2023-03-09 14:30:00+0100</a></td><td>2024-04-16 06:40:17+0000</td></tr></table><h3>Processings</h3><table class="grid"><tr><td style="display: none">-</td><td><b>Time[x]</b></td></tr><tr><td style="display: none">*</td><td>2024-04-16 06:40:17+0000 --&gt; 2024-04-17 06:40:17+0000</td></tr></table><h3>Containers</h3><table class="grid"><tr><td style="display: none">-</td><td><b>Identifier</b></td><td><b>Description</b></td><td><b>Type</b></td></tr><tr><td style="display: none">*</td><td>4e88a-bc987-dd888-00001-bcoag</td><td>S-Monovette grün</td><td><span title="Codes:{http://snomed.info/sct 702296009}">Non-evacuated blood collection tube, sodium citrate (physical object)</span></td></tr></table></div>
        </text>
        <identifier>
          <value value="48736-55555-75465"/>
        </identifier>
        <accessionIdentifier>
          <value value="4e88a-66666-dd888"/>
        </accessionIdentifier>
        <status value="available"/>
        <type>
          <coding>
            <system value="http://snomed.info/sct"/>
            <code value="119297000"/>
            <display value="Blood specimen"/>
          </coding>
        </type>
        <subject>
          <reference value="urn:uuid:6b8a0365-5022-403b-a5a5-8d8680d701ef"/>
          <display value="Hans Guggindieluft"/>
        </subject>
        <receivedTime value="2020-08-16T16:40:17Z"/>
        <collection>
          <collector>
            <reference value="urn:uuid:017e8e32-2f3b-4bef-baf1-92c7278a7048"/>
          </collector>
          <collectedDateTime value="2024-04-16T06:40:17Z"/>
        </collection>
        <processing>
          <timePeriod>
            <start value="2024-04-16T06:40:17Z"/>
            <end value="2024-04-17T06:40:17Z"/>
          </timePeriod>
        </processing>
        <container>
          <identifier>
            <value value="4e88a-bc987-dd888-00001-bcoag"/>
          </identifier>
          <description value="S-Monovette grün"/>
          <type>
            <coding>
              <system value="http://snomed.info/sct"/>
              <code value="702296009"/>
              <display value="Non-evacuated blood collection tube, sodium citrate (physical object)"/>
            </coding>
          </type>
        </container>
      </Specimen>
    </resource>
  </entry>
  <entry>
    <fullUrl value="urn:uuid:9b554309-f9d4-4559-ba81-91659cd11786"/>
    <resource>
      <Specimen>
        <id value="9b554309-f9d4-4559-ba81-91659cd11786"/>
        <meta>
          <profile value="http://fhir.ch/ig/ch-lab-report/StructureDefinition/ch-lab-specimen"/>
        </meta>
        <text>
          <status value="generated"/><div xmlns="http://www.w3.org/1999/xhtml"><a name="Specimen_9b554309-f9d4-4559-ba81-91659cd11786"> </a><p class="res-header-id"><b>Generated Narrative: Specimen 9b554309-f9d4-4559-ba81-91659cd11786</b></p><a name="9b554309-f9d4-4559-ba81-91659cd11786"> </a><a name="hc9b554309-f9d4-4559-ba81-91659cd11786"> </a><a name="9b554309-f9d4-4559-ba81-91659cd11786-en-US"> </a><div style="display: inline-block; background-color: #d9e0e7; padding: 6px; margin: 4px; border: 1px solid #8da1b4; border-radius: 5px; line-height: 60%"><p style="margin-bottom: 0px"/><p style="margin-bottom: 0px">Profile: <a href="StructureDefinition-ch-lab-specimen.html">CH LAB-Report Specimen</a></p></div><p><b>identifier</b>: 48736-12345-75465</p><p><b>accessionIdentifier</b>: 4e88a-12345-dd888</p><p><b>status</b>: Available</p><p><b>type</b>: <span title="Codes:{http://snomed.info/sct 119364003}">Serum specimen</span></p><p><b>subject</b>: <a href="Bundle-LabResultReport-1-tvt.html#urn-uuid-6b8a0365-5022-403b-a5a5-8d8680d701ef">Hans Guggindieluft</a></p><h3>Collections</h3><table class="grid"><tr><td style="display: none">-</td><td><b>Collector</b></td><td><b>Collected[x]</b></td><td><b>BodySite</b></td><td><b>FastingStatus[x]</b></td></tr><tr><td style="display: none">*</td><td><a href="Bundle-LabResultReport-1-tvt.html#urn-uuid-017e8e32-2f3b-4bef-baf1-92c7278a7048">Bundle: identifier = http://example.org#e65fa2fa-c130-4097-9848-486ee61f58df; type = document; timestamp = 2023-03-09 14:30:00+0100</a></td><td>2024-04-16 06:40:17+0000</td><td><span title="Codes:{http://snomed.info/sct 49852007}">Structure of median cubital vein (body structure)</span></td><td><span title="Codes:{http://terminology.hl7.org/CodeSystem/v2-0916 F}">Patient was fasting prior to the procedure.</span></td></tr></table><h3>Containers</h3><table class="grid"><tr><td style="display: none">-</td><td><b>Type</b></td></tr><tr><td style="display: none">*</td><td><span title="Codes:{http://snomed.info/sct 706053007}">General specimen container</span></td></tr></table></div>
        </text>
        <identifier>
          <value value="48736-12345-75465"/>
        </identifier>
        <accessionIdentifier>
          <value value="4e88a-12345-dd888"/>
        </accessionIdentifier>
        <status value="available"/>
        <type>
          <coding>
            <system value="http://snomed.info/sct"/>
            <code value="119364003"/>
            <display value="Serum specimen"/>
          </coding>
        </type>
        <subject>
          <reference value="urn:uuid:6b8a0365-5022-403b-a5a5-8d8680d701ef"/>
          <display value="Hans Guggindieluft"/>
        </subject>
        <collection>
          <collector>
            <reference value="urn:uuid:017e8e32-2f3b-4bef-baf1-92c7278a7048"/>
          </collector>
          <collectedDateTime value="2024-04-16T06:40:17Z"/>
          <bodySite>
            <coding>
              <system value="http://snomed.info/sct"/>
              <code value="49852007"/>
              <display value="Structure of median cubital vein (body structure)"/>
            </coding>
          </bodySite>
          <fastingStatusCodeableConcept>
            <coding>
              <system value="http://terminology.hl7.org/CodeSystem/v2-0916"/>
              <code value="F"/>
              <display value="Patient was fasting prior to the procedure."/>
            </coding>
          </fastingStatusCodeableConcept>
        </collection>
        <container>
          <type>
            <coding>
              <system value="http://snomed.info/sct"/>
              <code value="706053007"/>
              <display value="General specimen container"/>
            </coding>
          </type>
        </container>
      </Specimen>
    </resource>
  </entry>
  <entry>
    <fullUrl value="urn:uuid:3b9c6849-cf71-45e9-9d88-31f7879342f0"/>
    <resource>
      <Device>
        <id value="3b9c6849-cf71-45e9-9d88-31f7879342f0"/>
        <meta>
          <profile value="http://fhir.ch/ig/ch-lab-report/StructureDefinition/ch-lab-report-device-analyzer"/>
        </meta>
        <text>
          <status value="generated"/><div xmlns="http://www.w3.org/1999/xhtml"><a name="Device_3b9c6849-cf71-45e9-9d88-31f7879342f0"> </a><p class="res-header-id"><b>Generated Narrative: Device 3b9c6849-cf71-45e9-9d88-31f7879342f0</b></p><a name="3b9c6849-cf71-45e9-9d88-31f7879342f0"> </a><a name="hc3b9c6849-cf71-45e9-9d88-31f7879342f0"> </a><a name="3b9c6849-cf71-45e9-9d88-31f7879342f0-en-US"> </a><div style="display: inline-block; background-color: #d9e0e7; padding: 6px; margin: 4px; border: 1px solid #8da1b4; border-radius: 5px; line-height: 60%"><p style="margin-bottom: 0px"/><p style="margin-bottom: 0px">Profile: <a href="StructureDefinition-ch-lab-report-device-analyzer.html">CH LAB-Report Device: Analyzer</a></p></div><p><b>identifier</b>: <code>http://example.org/Labor-Gantenbein/devices/id</code>/345675</p><h3>UdiCarriers</h3><table class="grid"><tr><td style="display: none">-</td><td><b>DeviceIdentifier</b></td></tr><tr><td style="display: none">*</td><td>AN040156300934000</td></tr></table><p><b>status</b>: Active</p><p><b>manufacturer</b>: Sysmex</p><p><b>lotNumber</b>: lot.112233</p><p><b>serialNumber</b>: 06882382</p><h3>DeviceNames</h3><table class="grid"><tr><td style="display: none">-</td><td><b>Name</b></td><td><b>Type</b></td></tr><tr><td style="display: none">*</td><td>XP-300</td><td>UDI Label name</td></tr></table></div>
        </text>
        <identifier>
          <system value="http://example.org/Labor-Gantenbein/devices/id"/>
          <value value="345675"/>
        </identifier>
        <udiCarrier>
          <deviceIdentifier value="AN040156300934000"/>
        </udiCarrier>
        <status value="active"/>
        <manufacturer value="Sysmex"/>
        <lotNumber value="lot.112233"/>
        <serialNumber value="06882382"/>
        <deviceName>
          <name value="XP-300"/>
          <type value="udi-label-name"/>
        </deviceName>
      </Device>
    </resource>
  </entry>
  <entry>
    <fullUrl value="urn:uuid:729d1c62-051e-4e3a-80d4-06f861b2a794"/>
    <resource>
      <Device>
        <id value="729d1c62-051e-4e3a-80d4-06f861b2a794"/>
        <meta>
          <profile value="http://fhir.ch/ig/ch-lab-report/StructureDefinition/ch-lab-report-device-test-kit"/>
        </meta>
        <text>
          <status value="generated"/><div xmlns="http://www.w3.org/1999/xhtml"><a name="Device_729d1c62-051e-4e3a-80d4-06f861b2a794"> </a><p class="res-header-id"><b>Generated Narrative: Device 729d1c62-051e-4e3a-80d4-06f861b2a794</b></p><a name="729d1c62-051e-4e3a-80d4-06f861b2a794"> </a><a name="hc729d1c62-051e-4e3a-80d4-06f861b2a794"> </a><a name="729d1c62-051e-4e3a-80d4-06f861b2a794-en-US"> </a><div style="display: inline-block; background-color: #d9e0e7; padding: 6px; margin: 4px; border: 1px solid #8da1b4; border-radius: 5px; line-height: 60%"><p style="margin-bottom: 0px"/><p style="margin-bottom: 0px">Profile: <a href="StructureDefinition-ch-lab-report-device-test-kit.html">CH LAB-Report Device: TestKit</a></p></div><p><b>identifier</b>: <code>http://example.org/Labor-Gantenbein/devices/id</code>/345675</p><h3>UdiCarriers</h3><table class="grid"><tr><td style="display: none">-</td><td><b>DeviceIdentifier</b></td></tr><tr><td style="display: none">*</td><td>TK040156300936001</td></tr></table><p><b>status</b>: Active</p><p><b>manufacturer</b>: Abbott</p><p><b>lotNumber</b>: lot.112233</p><p><b>serialNumber</b>: 1116787</p><h3>DeviceNames</h3><table class="grid"><tr><td style="display: none">-</td><td><b>Name</b></td><td><b>Type</b></td></tr><tr><td style="display: none">*</td><td>Afinion™ CRP</td><td>UDI Label name</td></tr></table></div>
        </text>
        <identifier>
          <system value="http://example.org/Labor-Gantenbein/devices/id"/>
          <value value="345675"/>
        </identifier>
        <udiCarrier>
          <deviceIdentifier value="TK040156300936001"/>
        </udiCarrier>
        <status value="active"/>
        <manufacturer value="Abbott"/>
        <lotNumber value="lot.112233"/>
        <serialNumber value="1116787"/>
        <deviceName>
          <name value="Afinion™ CRP"/>
          <type value="udi-label-name"/>
        </deviceName>
      </Device>
    </resource>
  </entry>
  <entry>
    <fullUrl value="urn:uuid:523fa1b9-f24d-4ae6-aa98-92d7f57b2066"/>
    <resource>
      <Device>
        <id value="523fa1b9-f24d-4ae6-aa98-92d7f57b2066"/>
        <meta>
          <profile value="http://fhir.ch/ig/ch-lab-report/StructureDefinition/ch-lab-report-device-test-kit"/>
        </meta>
        <text>
          <status value="generated"/><div xmlns="http://www.w3.org/1999/xhtml"><a name="Device_523fa1b9-f24d-4ae6-aa98-92d7f57b2066"> </a><p class="res-header-id"><b>Generated Narrative: Device 523fa1b9-f24d-4ae6-aa98-92d7f57b2066</b></p><a name="523fa1b9-f24d-4ae6-aa98-92d7f57b2066"> </a><a name="hc523fa1b9-f24d-4ae6-aa98-92d7f57b2066"> </a><a name="523fa1b9-f24d-4ae6-aa98-92d7f57b2066-en-US"> </a><div style="display: inline-block; background-color: #d9e0e7; padding: 6px; margin: 4px; border: 1px solid #8da1b4; border-radius: 5px; line-height: 60%"><p style="margin-bottom: 0px"/><p style="margin-bottom: 0px">Profile: <a href="StructureDefinition-ch-lab-report-device-test-kit.html">CH LAB-Report Device: TestKit</a></p></div><p><b>identifier</b>: <code>http://example.org/Labor-Gantenbein/devices/id</code>/345675</p><h3>UdiCarriers</h3><table class="grid"><tr><td style="display: none">-</td><td><b>DeviceIdentifier</b></td></tr><tr><td style="display: none">*</td><td>TK040156300936002</td></tr></table><p><b>status</b>: Active</p><p><b>manufacturer</b>: Roche</p><p><b>lotNumber</b>: lot.112233</p><p><b>serialNumber</b>: 06882382</p><h3>DeviceNames</h3><table class="grid"><tr><td style="display: none">-</td><td><b>Name</b></td><td><b>Type</b></td></tr><tr><td style="display: none">*</td><td>Roche CARDIAC D-Dimer</td><td>UDI Label name</td></tr></table></div>
        </text>
        <identifier>
          <system value="http://example.org/Labor-Gantenbein/devices/id"/>
          <value value="345675"/>
        </identifier>
        <udiCarrier>
          <deviceIdentifier value="TK040156300936002"/>
        </udiCarrier>
        <status value="active"/>
        <manufacturer value="Roche"/>
        <lotNumber value="lot.112233"/>
        <serialNumber value="06882382"/>
        <deviceName>
          <name value="Roche CARDIAC D-Dimer"/>
          <type value="udi-label-name"/>
        </deviceName>
      </Device>
    </resource>
  </entry>
  <entry>
    <fullUrl value="urn:uuid:9e180157-5a4e-4a8a-8ca9-9b09c2056666"/>
    <resource>
      <ServiceRequest>
        <id value="9e180157-5a4e-4a8a-8ca9-9b09c2056666"/>
        <meta>
          <profile value="http://fhir.ch/ig/ch-lab-report/StructureDefinition/ch-lab-report-servicerequest"/>
        </meta>
        <text>
          <status value="generated"/><div xmlns="http://www.w3.org/1999/xhtml"><a name="ServiceRequest_9e180157-5a4e-4a8a-8ca9-9b09c2056666"> </a><p class="res-header-id"><b>Generated Narrative: ServiceRequest 9e180157-5a4e-4a8a-8ca9-9b09c2056666</b></p><a name="9e180157-5a4e-4a8a-8ca9-9b09c2056666"> </a><a name="hc9e180157-5a4e-4a8a-8ca9-9b09c2056666"> </a><a name="9e180157-5a4e-4a8a-8ca9-9b09c2056666-en-US"> </a><div style="display: inline-block; background-color: #d9e0e7; padding: 6px; margin: 4px; border: 1px solid #8da1b4; border-radius: 5px; line-height: 60%"><p style="margin-bottom: 0px"/><p style="margin-bottom: 0px">Profile: <a href="StructureDefinition-ch-lab-report-servicerequest.html">CH LAB-Report ServiceRequest: Laboratory Order</a></p></div><p><b>identifier</b>: Placer Identifier/123</p><p><b>basedOn</b>: </p><ul><li><a href="Bundle-LabResultReport-1-tvt.html#urn-uuid-1dcc636a-cc10-450d-9748-cfd760e2668f">ServiceRequest-WBC</a></li><li><a href="Bundle-LabResultReport-1-tvt.html#urn-uuid-a64d92bf-8ca8-4e12-ae29-624c70ac0e26">ServiceRequest-RBC</a></li><li><a href="Bundle-LabResultReport-1-tvt.html#urn-uuid-ce16707a-b9bb-4c8d-8e4e-f8c135ed4a40">ServiceRequest-HGB</a></li><li><a href="Bundle-LabResultReport-1-tvt.html#urn-uuid-e4072da7-a760-47ba-83e7-59796c59a944">ServiceRequest-HT</a></li><li><a href="Bundle-LabResultReport-1-tvt.html#urn-uuid-6adcf650-19cb-4d58-b27c-3cf52aa32d86">ServiceRequest-MCV</a></li><li><a href="Bundle-LabResultReport-1-tvt.html#urn-uuid-3edb7f4c-e0c8-45c5-aee9-83d326aa61ab">ServiceRequest-MCH</a></li><li><a href="Bundle-LabResultReport-1-tvt.html#urn-uuid-82db46b7-acef-49f4-9456-6e9cbd62a27b">ServiceRequest-MCHC</a></li><li><a href="Bundle-LabResultReport-1-tvt.html#urn-uuid-bfc054ce-704c-11ee-b962-0242ac120002">ServiceRequest-Platelet</a></li></ul><p><b>requisition</b>: Provider number/ReqID-1234567</p><p><b>status</b>: Active</p><p><b>intent</b>: Original Order</p><p><b>priority</b>: Urgent</p><p><b>code</b>: <span title="Codes:{http://loinc.org 58410-2}">CBC panel - Blood by Automated count</span></p><p><b>subject</b>: <a href="Bundle-LabResultReport-1-tvt.html#urn-uuid-6b8a0365-5022-403b-a5a5-8d8680d701ef">Hans Guggindieluft</a></p><p><b>requester</b>: <a href="Bundle-LabResultReport-1-tvt.html#urn-uuid-017e8e32-2f3b-4bef-baf1-92c7278a7048">Marc Mustermann at Arztpraxis</a></p><p><b>reasonCode</b>: <span title="Codes:{http://snomed.info/sct 432805000}">Suspected deep vein thrombosis (situation)</span></p><p><b>specimen</b>: <a href="Bundle-LabResultReport-1-tvt.html#urn-uuid-3a98a13d-cf64-40bb-b7a0-87ef45193a74">Blood Sample</a></p></div>
        </text>
        <identifier>
          <type>
            <coding>
              <system value="http://terminology.hl7.org/CodeSystem/v2-0203"/>
              <code value="PLAC"/>
              <display value="Placer Identifier"/>
            </coding>
          </type>
          <system value="http://example.org/order-placer-organization"/>
          <value value="123"/>
        </identifier>
        <basedOn>
          <reference value="urn:uuid:1dcc636a-cc10-450d-9748-cfd760e2668f"/>
          <display value="ServiceRequest-WBC"/>
        </basedOn>
        <basedOn>
          <reference value="urn:uuid:a64d92bf-8ca8-4e12-ae29-624c70ac0e26"/>
          <display value="ServiceRequest-RBC"/>
        </basedOn>
        <basedOn>
          <reference value="urn:uuid:ce16707a-b9bb-4c8d-8e4e-f8c135ed4a40"/>
          <display value="ServiceRequest-HGB"/>
        </basedOn>
        <basedOn>
          <reference value="urn:uuid:e4072da7-a760-47ba-83e7-59796c59a944"/>
          <display value="ServiceRequest-HT"/>
        </basedOn>
        <basedOn>
          <reference value="urn:uuid:6adcf650-19cb-4d58-b27c-3cf52aa32d86"/>
          <display value="ServiceRequest-MCV"/>
        </basedOn>
        <basedOn>
          <reference value="urn:uuid:3edb7f4c-e0c8-45c5-aee9-83d326aa61ab"/>
          <display value="ServiceRequest-MCH"/>
        </basedOn>
        <basedOn>
          <reference value="urn:uuid:82db46b7-acef-49f4-9456-6e9cbd62a27b"/>
          <display value="ServiceRequest-MCHC"/>
        </basedOn>
        <basedOn>
          <reference value="urn:uuid:bfc054ce-704c-11ee-b962-0242ac120002"/>
          <display value="ServiceRequest-Platelet"/>
        </basedOn>
        <requisition>
          <type>
            <coding>
              <system value="http://terminology.hl7.org/CodeSystem/v2-0203"/>
              <code value="PRN"/>
              <display value="Provider number"/>
            </coding>
          </type>
          <system value="http://example.org/ProviderNumber/Requisition"/>
          <value value="ReqID-1234567"/>
        </requisition>
        <status value="active"/>
        <intent value="original-order"/>
        <priority value="urgent"/>
        <code>
          <coding>
            <system value="http://loinc.org"/>
            <code value="58410-2"/>
            <display value="CBC panel - Blood by Automated count"/>
          </coding>
        </code>
        <subject>
          <reference value="urn:uuid:6b8a0365-5022-403b-a5a5-8d8680d701ef"/>
          <display value="Hans Guggindieluft"/>
        </subject>
        <requester>
          <reference value="urn:uuid:017e8e32-2f3b-4bef-baf1-92c7278a7048"/>
          <display value="Marc Mustermann at Arztpraxis"/>
        </requester>
        <reasonCode>
          <coding>
            <system value="http://snomed.info/sct"/>
            <code value="432805000"/>
          </coding>
          <text value="Suspected deep vein thrombosis (situation)"/>
        </reasonCode>
        <specimen>
          <reference value="urn:uuid:3a98a13d-cf64-40bb-b7a0-87ef45193a74"/>
          <display value="Blood Sample"/>
        </specimen>
      </ServiceRequest>
    </resource>
  </entry>
  <entry>
    <fullUrl value="urn:uuid:1dcc636a-cc10-450d-9748-cfd760e2668f"/>
    <resource>
      <ServiceRequest>
        <id value="1dcc636a-cc10-450d-9748-cfd760e2668f"/>
        <meta>
          <profile value="http://fhir.ch/ig/ch-lab-report/StructureDefinition/ch-lab-report-servicerequest"/>
        </meta>
        <text>
          <status value="generated"/><div xmlns="http://www.w3.org/1999/xhtml"><a name="ServiceRequest_1dcc636a-cc10-450d-9748-cfd760e2668f"> </a><p class="res-header-id"><b>Generated Narrative: ServiceRequest 1dcc636a-cc10-450d-9748-cfd760e2668f</b></p><a name="1dcc636a-cc10-450d-9748-cfd760e2668f"> </a><a name="hc1dcc636a-cc10-450d-9748-cfd760e2668f"> </a><a name="1dcc636a-cc10-450d-9748-cfd760e2668f-en-US"> </a><div style="display: inline-block; background-color: #d9e0e7; padding: 6px; margin: 4px; border: 1px solid #8da1b4; border-radius: 5px; line-height: 60%"><p style="margin-bottom: 0px"/><p style="margin-bottom: 0px">Profile: <a href="StructureDefinition-ch-lab-report-servicerequest.html">CH LAB-Report ServiceRequest: Laboratory Order</a></p></div><p><b>identifier</b>: Placer Identifier/123</p><p><b>requisition</b>: Provider number/ReqID-1234567</p><p><b>status</b>: Active</p><p><b>intent</b>: Original Order</p><p><b>priority</b>: Urgent</p><p><b>code</b>: <span title="Codes:{http://loinc.org 6690-2}">Leukocytes [#/volume] in Blood by Automated count</span></p><p><b>subject</b>: <a href="Bundle-LabResultReport-1-tvt.html#urn-uuid-6b8a0365-5022-403b-a5a5-8d8680d701ef">Hans Guggindieluft</a></p><p><b>requester</b>: <a href="Bundle-LabResultReport-1-tvt.html#urn-uuid-017e8e32-2f3b-4bef-baf1-92c7278a7048">Marc Mustermann at Arztpraxis</a></p><p><b>reasonCode</b>: <span title="Codes:{http://snomed.info/sct 432805000}">Suspected deep vein thrombosis (situation)</span></p><p><b>specimen</b>: <a href="Bundle-LabResultReport-1-tvt.html#urn-uuid-3a98a13d-cf64-40bb-b7a0-87ef45193a74">Blood Sample</a></p></div>
        </text>
        <identifier>
          <type>
            <coding>
              <system value="http://terminology.hl7.org/CodeSystem/v2-0203"/>
              <code value="PLAC"/>
              <display value="Placer Identifier"/>
            </coding>
          </type>
          <system value="http://example.org/order-placer-organization"/>
          <value value="123"/>
        </identifier>
        <requisition>
          <type>
            <coding>
              <system value="http://terminology.hl7.org/CodeSystem/v2-0203"/>
              <code value="PRN"/>
              <display value="Provider number"/>
            </coding>
          </type>
          <system value="http://example.org/ProviderNumber/Requisition"/>
          <value value="ReqID-1234567"/>
        </requisition>
        <status value="active"/>
        <intent value="original-order"/>
        <priority value="urgent"/>
        <code>
          <coding>
            <system value="http://loinc.org"/>
            <code value="6690-2"/>
            <display value="Leukocytes [#/volume] in Blood by Automated count"/>
          </coding>
        </code>
        <subject>
          <reference value="urn:uuid:6b8a0365-5022-403b-a5a5-8d8680d701ef"/>
          <display value="Hans Guggindieluft"/>
        </subject>
        <requester>
          <reference value="urn:uuid:017e8e32-2f3b-4bef-baf1-92c7278a7048"/>
          <display value="Marc Mustermann at Arztpraxis"/>
        </requester>
        <reasonCode>
          <coding>
            <system value="http://snomed.info/sct"/>
            <code value="432805000"/>
          </coding>
          <text value="Suspected deep vein thrombosis (situation)"/>
        </reasonCode>
        <specimen>
          <reference value="urn:uuid:3a98a13d-cf64-40bb-b7a0-87ef45193a74"/>
          <display value="Blood Sample"/>
        </specimen>
      </ServiceRequest>
    </resource>
  </entry>
  <entry>
    <fullUrl value="urn:uuid:a64d92bf-8ca8-4e12-ae29-624c70ac0e26"/>
    <resource>
      <ServiceRequest>
        <id value="a64d92bf-8ca8-4e12-ae29-624c70ac0e26"/>
        <meta>
          <profile value="http://fhir.ch/ig/ch-lab-report/StructureDefinition/ch-lab-report-servicerequest"/>
        </meta>
        <text>
          <status value="generated"/><div xmlns="http://www.w3.org/1999/xhtml"><a name="ServiceRequest_a64d92bf-8ca8-4e12-ae29-624c70ac0e26"> </a><p class="res-header-id"><b>Generated Narrative: ServiceRequest a64d92bf-8ca8-4e12-ae29-624c70ac0e26</b></p><a name="a64d92bf-8ca8-4e12-ae29-624c70ac0e26"> </a><a name="hca64d92bf-8ca8-4e12-ae29-624c70ac0e26"> </a><a name="a64d92bf-8ca8-4e12-ae29-624c70ac0e26-en-US"> </a><div style="display: inline-block; background-color: #d9e0e7; padding: 6px; margin: 4px; border: 1px solid #8da1b4; border-radius: 5px; line-height: 60%"><p style="margin-bottom: 0px"/><p style="margin-bottom: 0px">Profile: <a href="StructureDefinition-ch-lab-report-servicerequest.html">CH LAB-Report ServiceRequest: Laboratory Order</a></p></div><p><b>identifier</b>: Placer Identifier/123</p><p><b>requisition</b>: Provider number/ReqID-1234567</p><p><b>status</b>: Active</p><p><b>intent</b>: Original Order</p><p><b>priority</b>: Urgent</p><p><b>code</b>: <span title="Codes:{http://loinc.org 789-8}">Erythrocytes [#/volume] in Blood by Automated count</span></p><p><b>subject</b>: <a href="Bundle-LabResultReport-1-tvt.html#urn-uuid-6b8a0365-5022-403b-a5a5-8d8680d701ef">Hans Guggindieluft</a></p><p><b>requester</b>: <a href="Bundle-LabResultReport-1-tvt.html#urn-uuid-017e8e32-2f3b-4bef-baf1-92c7278a7048">Marc Mustermann at Arztpraxis</a></p><p><b>reasonCode</b>: <span title="Codes:{http://snomed.info/sct 432805000}">Suspected deep vein thrombosis (situation)</span></p><p><b>specimen</b>: <a href="Bundle-LabResultReport-1-tvt.html#urn-uuid-3a98a13d-cf64-40bb-b7a0-87ef45193a74">Blood Sample</a></p></div>
        </text>
        <identifier>
          <type>
            <coding>
              <system value="http://terminology.hl7.org/CodeSystem/v2-0203"/>
              <code value="PLAC"/>
              <display value="Placer Identifier"/>
            </coding>
          </type>
          <system value="http://example.org/order-placer-organization"/>
          <value value="123"/>
        </identifier>
        <requisition>
          <type>
            <coding>
              <system value="http://terminology.hl7.org/CodeSystem/v2-0203"/>
              <code value="PRN"/>
              <display value="Provider number"/>
            </coding>
          </type>
          <system value="http://example.org/ProviderNumber/Requisition"/>
          <value value="ReqID-1234567"/>
        </requisition>
        <status value="active"/>
        <intent value="original-order"/>
        <priority value="urgent"/>
        <code>
          <coding>
            <system value="http://loinc.org"/>
            <code value="789-8"/>
            <display value="Erythrocytes [#/volume] in Blood by Automated count"/>
          </coding>
        </code>
        <subject>
          <reference value="urn:uuid:6b8a0365-5022-403b-a5a5-8d8680d701ef"/>
          <display value="Hans Guggindieluft"/>
        </subject>
        <requester>
          <reference value="urn:uuid:017e8e32-2f3b-4bef-baf1-92c7278a7048"/>
          <display value="Marc Mustermann at Arztpraxis"/>
        </requester>
        <reasonCode>
          <coding>
            <system value="http://snomed.info/sct"/>
            <code value="432805000"/>
          </coding>
          <text value="Suspected deep vein thrombosis (situation)"/>
        </reasonCode>
        <specimen>
          <reference value="urn:uuid:3a98a13d-cf64-40bb-b7a0-87ef45193a74"/>
          <display value="Blood Sample"/>
        </specimen>
      </ServiceRequest>
    </resource>
  </entry>
  <entry>
    <fullUrl value="urn:uuid:ce16707a-b9bb-4c8d-8e4e-f8c135ed4a40"/>
    <resource>
      <ServiceRequest>
        <id value="ce16707a-b9bb-4c8d-8e4e-f8c135ed4a40"/>
        <meta>
          <profile value="http://fhir.ch/ig/ch-lab-report/StructureDefinition/ch-lab-report-servicerequest"/>
        </meta>
        <text>
          <status value="generated"/><div xmlns="http://www.w3.org/1999/xhtml"><a name="ServiceRequest_ce16707a-b9bb-4c8d-8e4e-f8c135ed4a40"> </a><p class="res-header-id"><b>Generated Narrative: ServiceRequest ce16707a-b9bb-4c8d-8e4e-f8c135ed4a40</b></p><a name="ce16707a-b9bb-4c8d-8e4e-f8c135ed4a40"> </a><a name="hcce16707a-b9bb-4c8d-8e4e-f8c135ed4a40"> </a><a name="ce16707a-b9bb-4c8d-8e4e-f8c135ed4a40-en-US"> </a><div style="display: inline-block; background-color: #d9e0e7; padding: 6px; margin: 4px; border: 1px solid #8da1b4; border-radius: 5px; line-height: 60%"><p style="margin-bottom: 0px"/><p style="margin-bottom: 0px">Profile: <a href="StructureDefinition-ch-lab-report-servicerequest.html">CH LAB-Report ServiceRequest: Laboratory Order</a></p></div><p><b>identifier</b>: Placer Identifier/123</p><p><b>requisition</b>: Provider number/ReqID-1234567</p><p><b>status</b>: Active</p><p><b>intent</b>: Original Order</p><p><b>priority</b>: Urgent</p><p><b>code</b>: <span title="Codes:{http://loinc.org 718-7}">Hemoglobin [Mass/volume] in Blood</span></p><p><b>subject</b>: <a href="Bundle-LabResultReport-1-tvt.html#urn-uuid-6b8a0365-5022-403b-a5a5-8d8680d701ef">Hans Guggindieluft</a></p><p><b>requester</b>: <a href="Bundle-LabResultReport-1-tvt.html#urn-uuid-017e8e32-2f3b-4bef-baf1-92c7278a7048">Marc Mustermann at Arztpraxis</a></p><p><b>reasonCode</b>: <span title="Codes:{http://snomed.info/sct 432805000}">Suspected deep vein thrombosis (situation)</span></p><p><b>specimen</b>: <a href="Bundle-LabResultReport-1-tvt.html#urn-uuid-3a98a13d-cf64-40bb-b7a0-87ef45193a74">Blood Sample</a></p></div>
        </text>
        <identifier>
          <type>
            <coding>
              <system value="http://terminology.hl7.org/CodeSystem/v2-0203"/>
              <code value="PLAC"/>
              <display value="Placer Identifier"/>
            </coding>
          </type>
          <system value="http://example.org/order-placer-organization"/>
          <value value="123"/>
        </identifier>
        <requisition>
          <type>
            <coding>
              <system value="http://terminology.hl7.org/CodeSystem/v2-0203"/>
              <code value="PRN"/>
              <display value="Provider number"/>
            </coding>
          </type>
          <system value="http://example.org/ProviderNumber/Requisition"/>
          <value value="ReqID-1234567"/>
        </requisition>
        <status value="active"/>
        <intent value="original-order"/>
        <priority value="urgent"/>
        <code>
          <coding>
            <system value="http://loinc.org"/>
            <code value="718-7"/>
            <display value="Hemoglobin [Mass/volume] in Blood"/>
          </coding>
        </code>
        <subject>
          <reference value="urn:uuid:6b8a0365-5022-403b-a5a5-8d8680d701ef"/>
          <display value="Hans Guggindieluft"/>
        </subject>
        <requester>
          <reference value="urn:uuid:017e8e32-2f3b-4bef-baf1-92c7278a7048"/>
          <display value="Marc Mustermann at Arztpraxis"/>
        </requester>
        <reasonCode>
          <coding>
            <system value="http://snomed.info/sct"/>
            <code value="432805000"/>
          </coding>
          <text value="Suspected deep vein thrombosis (situation)"/>
        </reasonCode>
        <specimen>
          <reference value="urn:uuid:3a98a13d-cf64-40bb-b7a0-87ef45193a74"/>
          <display value="Blood Sample"/>
        </specimen>
      </ServiceRequest>
    </resource>
  </entry>
  <entry>
    <fullUrl value="urn:uuid:e4072da7-a760-47ba-83e7-59796c59a944"/>
    <resource>
      <ServiceRequest>
        <id value="e4072da7-a760-47ba-83e7-59796c59a944"/>
        <meta>
          <profile value="http://fhir.ch/ig/ch-lab-report/StructureDefinition/ch-lab-report-servicerequest"/>
        </meta>
        <text>
          <status value="generated"/><div xmlns="http://www.w3.org/1999/xhtml"><a name="ServiceRequest_e4072da7-a760-47ba-83e7-59796c59a944"> </a><p class="res-header-id"><b>Generated Narrative: ServiceRequest e4072da7-a760-47ba-83e7-59796c59a944</b></p><a name="e4072da7-a760-47ba-83e7-59796c59a944"> </a><a name="hce4072da7-a760-47ba-83e7-59796c59a944"> </a><a name="e4072da7-a760-47ba-83e7-59796c59a944-en-US"> </a><div style="display: inline-block; background-color: #d9e0e7; padding: 6px; margin: 4px; border: 1px solid #8da1b4; border-radius: 5px; line-height: 60%"><p style="margin-bottom: 0px"/><p style="margin-bottom: 0px">Profile: <a href="StructureDefinition-ch-lab-report-servicerequest.html">CH LAB-Report ServiceRequest: Laboratory Order</a></p></div><p><b>identifier</b>: Placer Identifier/123</p><p><b>requisition</b>: Provider number/ReqID-1234567</p><p><b>status</b>: Active</p><p><b>intent</b>: Original Order</p><p><b>priority</b>: Urgent</p><p><b>code</b>: <span title="Codes:{http://loinc.org 4544-3}">Hematocrit [Volume Fraction] of Blood by Automated count</span></p><p><b>subject</b>: <a href="Bundle-LabResultReport-1-tvt.html#urn-uuid-6b8a0365-5022-403b-a5a5-8d8680d701ef">Hans Guggindieluft</a></p><p><b>requester</b>: <a href="Bundle-LabResultReport-1-tvt.html#urn-uuid-017e8e32-2f3b-4bef-baf1-92c7278a7048">Marc Mustermann at Arztpraxis</a></p><p><b>reasonCode</b>: <span title="Codes:{http://snomed.info/sct 432805000}">Suspected deep vein thrombosis (situation)</span></p><p><b>specimen</b>: <a href="Bundle-LabResultReport-1-tvt.html#urn-uuid-3a98a13d-cf64-40bb-b7a0-87ef45193a74">Blood Sample</a></p></div>
        </text>
        <identifier>
          <type>
            <coding>
              <system value="http://terminology.hl7.org/CodeSystem/v2-0203"/>
              <code value="PLAC"/>
              <display value="Placer Identifier"/>
            </coding>
          </type>
          <system value="http://example.org/order-placer-organization"/>
          <value value="123"/>
        </identifier>
        <requisition>
          <type>
            <coding>
              <system value="http://terminology.hl7.org/CodeSystem/v2-0203"/>
              <code value="PRN"/>
              <display value="Provider number"/>
            </coding>
          </type>
          <system value="http://example.org/ProviderNumber/Requisition"/>
          <value value="ReqID-1234567"/>
        </requisition>
        <status value="active"/>
        <intent value="original-order"/>
        <priority value="urgent"/>
        <code>
          <coding>
            <system value="http://loinc.org"/>
            <code value="4544-3"/>
            <display value="Hematocrit [Volume Fraction] of Blood by Automated count"/>
          </coding>
        </code>
        <subject>
          <reference value="urn:uuid:6b8a0365-5022-403b-a5a5-8d8680d701ef"/>
          <display value="Hans Guggindieluft"/>
        </subject>
        <requester>
          <reference value="urn:uuid:017e8e32-2f3b-4bef-baf1-92c7278a7048"/>
          <display value="Marc Mustermann at Arztpraxis"/>
        </requester>
        <reasonCode>
          <coding>
            <system value="http://snomed.info/sct"/>
            <code value="432805000"/>
          </coding>
          <text value="Suspected deep vein thrombosis (situation)"/>
        </reasonCode>
        <specimen>
          <reference value="urn:uuid:3a98a13d-cf64-40bb-b7a0-87ef45193a74"/>
          <display value="Blood Sample"/>
        </specimen>
      </ServiceRequest>
    </resource>
  </entry>
  <entry>
    <fullUrl value="urn:uuid:6adcf650-19cb-4d58-b27c-3cf52aa32d86"/>
    <resource>
      <ServiceRequest>
        <id value="6adcf650-19cb-4d58-b27c-3cf52aa32d86"/>
        <meta>
          <profile value="http://fhir.ch/ig/ch-lab-report/StructureDefinition/ch-lab-report-servicerequest"/>
        </meta>
        <text>
          <status value="generated"/><div xmlns="http://www.w3.org/1999/xhtml"><a name="ServiceRequest_6adcf650-19cb-4d58-b27c-3cf52aa32d86"> </a><p class="res-header-id"><b>Generated Narrative: ServiceRequest 6adcf650-19cb-4d58-b27c-3cf52aa32d86</b></p><a name="6adcf650-19cb-4d58-b27c-3cf52aa32d86"> </a><a name="hc6adcf650-19cb-4d58-b27c-3cf52aa32d86"> </a><a name="6adcf650-19cb-4d58-b27c-3cf52aa32d86-en-US"> </a><div style="display: inline-block; background-color: #d9e0e7; padding: 6px; margin: 4px; border: 1px solid #8da1b4; border-radius: 5px; line-height: 60%"><p style="margin-bottom: 0px"/><p style="margin-bottom: 0px">Profile: <a href="StructureDefinition-ch-lab-report-servicerequest.html">CH LAB-Report ServiceRequest: Laboratory Order</a></p></div><p><b>identifier</b>: Placer Identifier/123</p><p><b>requisition</b>: Provider number/ReqID-1234567</p><p><b>status</b>: Active</p><p><b>intent</b>: Original Order</p><p><b>priority</b>: Urgent</p><p><b>code</b>: <span title="Codes:{http://loinc.org 787-2}">MCV [Entitic mean volume] in Red Blood Cells by Automated count</span></p><p><b>subject</b>: <a href="Bundle-LabResultReport-1-tvt.html#urn-uuid-6b8a0365-5022-403b-a5a5-8d8680d701ef">Hans Guggindieluft</a></p><p><b>requester</b>: <a href="Bundle-LabResultReport-1-tvt.html#urn-uuid-017e8e32-2f3b-4bef-baf1-92c7278a7048">Marc Mustermann at Arztpraxis</a></p><p><b>reasonCode</b>: <span title="Codes:{http://snomed.info/sct 432805000}">Suspected deep vein thrombosis (situation)</span></p><p><b>specimen</b>: <a href="Bundle-LabResultReport-1-tvt.html#urn-uuid-3a98a13d-cf64-40bb-b7a0-87ef45193a74">Blood Sample</a></p></div>
        </text>
        <identifier>
          <type>
            <coding>
              <system value="http://terminology.hl7.org/CodeSystem/v2-0203"/>
              <code value="PLAC"/>
              <display value="Placer Identifier"/>
            </coding>
          </type>
          <system value="http://example.org/order-placer-organization"/>
          <value value="123"/>
        </identifier>
        <requisition>
          <type>
            <coding>
              <system value="http://terminology.hl7.org/CodeSystem/v2-0203"/>
              <code value="PRN"/>
              <display value="Provider number"/>
            </coding>
          </type>
          <system value="http://example.org/ProviderNumber/Requisition"/>
          <value value="ReqID-1234567"/>
        </requisition>
        <status value="active"/>
        <intent value="original-order"/>
        <priority value="urgent"/>
        <code>
          <coding>
            <system value="http://loinc.org"/>
            <code value="787-2"/>
            <display value="MCV [Entitic mean volume] in Red Blood Cells by Automated count"/>
          </coding>
        </code>
        <subject>
          <reference value="urn:uuid:6b8a0365-5022-403b-a5a5-8d8680d701ef"/>
          <display value="Hans Guggindieluft"/>
        </subject>
        <requester>
          <reference value="urn:uuid:017e8e32-2f3b-4bef-baf1-92c7278a7048"/>
          <display value="Marc Mustermann at Arztpraxis"/>
        </requester>
        <reasonCode>
          <coding>
            <system value="http://snomed.info/sct"/>
            <code value="432805000"/>
          </coding>
          <text value="Suspected deep vein thrombosis (situation)"/>
        </reasonCode>
        <specimen>
          <reference value="urn:uuid:3a98a13d-cf64-40bb-b7a0-87ef45193a74"/>
          <display value="Blood Sample"/>
        </specimen>
      </ServiceRequest>
    </resource>
  </entry>
  <entry>
    <fullUrl value="urn:uuid:3edb7f4c-e0c8-45c5-aee9-83d326aa61ab"/>
    <resource>
      <ServiceRequest>
        <id value="3edb7f4c-e0c8-45c5-aee9-83d326aa61ab"/>
        <meta>
          <profile value="http://fhir.ch/ig/ch-lab-report/StructureDefinition/ch-lab-report-servicerequest"/>
        </meta>
        <text>
          <status value="generated"/><div xmlns="http://www.w3.org/1999/xhtml"><a name="ServiceRequest_3edb7f4c-e0c8-45c5-aee9-83d326aa61ab"> </a><p class="res-header-id"><b>Generated Narrative: ServiceRequest 3edb7f4c-e0c8-45c5-aee9-83d326aa61ab</b></p><a name="3edb7f4c-e0c8-45c5-aee9-83d326aa61ab"> </a><a name="hc3edb7f4c-e0c8-45c5-aee9-83d326aa61ab"> </a><a name="3edb7f4c-e0c8-45c5-aee9-83d326aa61ab-en-US"> </a><div style="display: inline-block; background-color: #d9e0e7; padding: 6px; margin: 4px; border: 1px solid #8da1b4; border-radius: 5px; line-height: 60%"><p style="margin-bottom: 0px"/><p style="margin-bottom: 0px">Profile: <a href="StructureDefinition-ch-lab-report-servicerequest.html">CH LAB-Report ServiceRequest: Laboratory Order</a></p></div><p><b>identifier</b>: Placer Identifier/123</p><p><b>requisition</b>: Provider number/ReqID-1234567</p><p><b>status</b>: Active</p><p><b>intent</b>: Original Order</p><p><b>priority</b>: Urgent</p><p><b>code</b>: <span title="Codes:{http://loinc.org 785-6}">MCH [Entitic mass] by Automated count</span></p><p><b>subject</b>: <a href="Bundle-LabResultReport-1-tvt.html#urn-uuid-6b8a0365-5022-403b-a5a5-8d8680d701ef">Hans Guggindieluft</a></p><p><b>requester</b>: <a href="Bundle-LabResultReport-1-tvt.html#urn-uuid-017e8e32-2f3b-4bef-baf1-92c7278a7048">Marc Mustermann at Arztpraxis</a></p><p><b>reasonCode</b>: <span title="Codes:{http://snomed.info/sct 432805000}">Suspected deep vein thrombosis (situation)</span></p><p><b>specimen</b>: <a href="Bundle-LabResultReport-1-tvt.html#urn-uuid-3a98a13d-cf64-40bb-b7a0-87ef45193a74">Blood Sample</a></p></div>
        </text>
        <identifier>
          <type>
            <coding>
              <system value="http://terminology.hl7.org/CodeSystem/v2-0203"/>
              <code value="PLAC"/>
              <display value="Placer Identifier"/>
            </coding>
          </type>
          <system value="http://example.org/order-placer-organization"/>
          <value value="123"/>
        </identifier>
        <requisition>
          <type>
            <coding>
              <system value="http://terminology.hl7.org/CodeSystem/v2-0203"/>
              <code value="PRN"/>
              <display value="Provider number"/>
            </coding>
          </type>
          <system value="http://example.org/ProviderNumber/Requisition"/>
          <value value="ReqID-1234567"/>
        </requisition>
        <status value="active"/>
        <intent value="original-order"/>
        <priority value="urgent"/>
        <code>
          <coding>
            <system value="http://loinc.org"/>
            <code value="785-6"/>
            <display value="MCH [Entitic mass] by Automated count"/>
          </coding>
        </code>
        <subject>
          <reference value="urn:uuid:6b8a0365-5022-403b-a5a5-8d8680d701ef"/>
          <display value="Hans Guggindieluft"/>
        </subject>
        <requester>
          <reference value="urn:uuid:017e8e32-2f3b-4bef-baf1-92c7278a7048"/>
          <display value="Marc Mustermann at Arztpraxis"/>
        </requester>
        <reasonCode>
          <coding>
            <system value="http://snomed.info/sct"/>
            <code value="432805000"/>
          </coding>
          <text value="Suspected deep vein thrombosis (situation)"/>
        </reasonCode>
        <specimen>
          <reference value="urn:uuid:3a98a13d-cf64-40bb-b7a0-87ef45193a74"/>
          <display value="Blood Sample"/>
        </specimen>
      </ServiceRequest>
    </resource>
  </entry>
  <entry>
    <fullUrl value="urn:uuid:82db46b7-acef-49f4-9456-6e9cbd62a27b"/>
    <resource>
      <ServiceRequest>
        <id value="82db46b7-acef-49f4-9456-6e9cbd62a27b"/>
        <meta>
          <profile value="http://fhir.ch/ig/ch-lab-report/StructureDefinition/ch-lab-report-servicerequest"/>
        </meta>
        <text>
          <status value="generated"/><div xmlns="http://www.w3.org/1999/xhtml"><a name="ServiceRequest_82db46b7-acef-49f4-9456-6e9cbd62a27b"> </a><p class="res-header-id"><b>Generated Narrative: ServiceRequest 82db46b7-acef-49f4-9456-6e9cbd62a27b</b></p><a name="82db46b7-acef-49f4-9456-6e9cbd62a27b"> </a><a name="hc82db46b7-acef-49f4-9456-6e9cbd62a27b"> </a><a name="82db46b7-acef-49f4-9456-6e9cbd62a27b-en-US"> </a><div style="display: inline-block; background-color: #d9e0e7; padding: 6px; margin: 4px; border: 1px solid #8da1b4; border-radius: 5px; line-height: 60%"><p style="margin-bottom: 0px"/><p style="margin-bottom: 0px">Profile: <a href="StructureDefinition-ch-lab-report-servicerequest.html">CH LAB-Report ServiceRequest: Laboratory Order</a></p></div><p><b>identifier</b>: Placer Identifier/123</p><p><b>requisition</b>: Provider number/ReqID-1234567</p><p><b>status</b>: Active</p><p><b>intent</b>: Original Order</p><p><b>priority</b>: Urgent</p><p><b>code</b>: <span title="Codes:{http://loinc.org 786-4}">MCHC [Entitic Mass/volume] in Red Blood Cells by Automated count</span></p><p><b>subject</b>: <a href="Bundle-LabResultReport-1-tvt.html#urn-uuid-6b8a0365-5022-403b-a5a5-8d8680d701ef">Hans Guggindieluft</a></p><p><b>requester</b>: <a href="Bundle-LabResultReport-1-tvt.html#urn-uuid-017e8e32-2f3b-4bef-baf1-92c7278a7048">Marc Mustermann at Arztpraxis</a></p><p><b>reasonCode</b>: <span title="Codes:{http://snomed.info/sct 432805000}">Suspected deep vein thrombosis (situation)</span></p><p><b>specimen</b>: <a href="Bundle-LabResultReport-1-tvt.html#urn-uuid-3a98a13d-cf64-40bb-b7a0-87ef45193a74">Blood Sample</a></p></div>
        </text>
        <identifier>
          <type>
            <coding>
              <system value="http://terminology.hl7.org/CodeSystem/v2-0203"/>
              <code value="PLAC"/>
              <display value="Placer Identifier"/>
            </coding>
          </type>
          <system value="http://example.org/order-placer-organization"/>
          <value value="123"/>
        </identifier>
        <requisition>
          <type>
            <coding>
              <system value="http://terminology.hl7.org/CodeSystem/v2-0203"/>
              <code value="PRN"/>
              <display value="Provider number"/>
            </coding>
          </type>
          <system value="http://example.org/ProviderNumber/Requisition"/>
          <value value="ReqID-1234567"/>
        </requisition>
        <status value="active"/>
        <intent value="original-order"/>
        <priority value="urgent"/>
        <code>
          <coding>
            <system value="http://loinc.org"/>
            <code value="786-4"/>
            <display value="MCHC [Entitic Mass/volume] in Red Blood Cells by Automated count"/>
          </coding>
        </code>
        <subject>
          <reference value="urn:uuid:6b8a0365-5022-403b-a5a5-8d8680d701ef"/>
          <display value="Hans Guggindieluft"/>
        </subject>
        <requester>
          <reference value="urn:uuid:017e8e32-2f3b-4bef-baf1-92c7278a7048"/>
          <display value="Marc Mustermann at Arztpraxis"/>
        </requester>
        <reasonCode>
          <coding>
            <system value="http://snomed.info/sct"/>
            <code value="432805000"/>
          </coding>
          <text value="Suspected deep vein thrombosis (situation)"/>
        </reasonCode>
        <specimen>
          <reference value="urn:uuid:3a98a13d-cf64-40bb-b7a0-87ef45193a74"/>
          <display value="Blood Sample"/>
        </specimen>
      </ServiceRequest>
    </resource>
  </entry>
  <entry>
    <fullUrl value="urn:uuid:bfc054ce-704c-11ee-b962-0242ac120002"/>
    <resource>
      <ServiceRequest>
        <id value="bfc054ce-704c-11ee-b962-0242ac120002"/>
        <meta>
          <profile value="http://fhir.ch/ig/ch-lab-report/StructureDefinition/ch-lab-report-servicerequest"/>
        </meta>
        <text>
          <status value="generated"/><div xmlns="http://www.w3.org/1999/xhtml"><a name="ServiceRequest_bfc054ce-704c-11ee-b962-0242ac120002"> </a><p class="res-header-id"><b>Generated Narrative: ServiceRequest bfc054ce-704c-11ee-b962-0242ac120002</b></p><a name="bfc054ce-704c-11ee-b962-0242ac120002"> </a><a name="hcbfc054ce-704c-11ee-b962-0242ac120002"> </a><a name="bfc054ce-704c-11ee-b962-0242ac120002-en-US"> </a><div style="display: inline-block; background-color: #d9e0e7; padding: 6px; margin: 4px; border: 1px solid #8da1b4; border-radius: 5px; line-height: 60%"><p style="margin-bottom: 0px"/><p style="margin-bottom: 0px">Profile: <a href="StructureDefinition-ch-lab-report-servicerequest.html">CH LAB-Report ServiceRequest: Laboratory Order</a></p></div><p><b>identifier</b>: Placer Identifier/123</p><p><b>requisition</b>: Provider number/ReqID-1234567</p><p><b>status</b>: Active</p><p><b>intent</b>: Original Order</p><p><b>priority</b>: Urgent</p><p><b>code</b>: <span title="Codes:{http://loinc.org 777-3}">Platelets [#/volume] in Blood by Automated count</span></p><p><b>subject</b>: <a href="Bundle-LabResultReport-1-tvt.html#urn-uuid-6b8a0365-5022-403b-a5a5-8d8680d701ef">Hans Guggindieluft</a></p><p><b>requester</b>: <a href="Bundle-LabResultReport-1-tvt.html#urn-uuid-017e8e32-2f3b-4bef-baf1-92c7278a7048">Marc Mustermann at Arztpraxis</a></p><p><b>reasonCode</b>: <span title="Codes:{http://snomed.info/sct 432805000}">Suspected deep vein thrombosis (situation)</span></p><p><b>specimen</b>: <a href="Bundle-LabResultReport-1-tvt.html#urn-uuid-3a98a13d-cf64-40bb-b7a0-87ef45193a74">Blood Sample</a></p></div>
        </text>
        <identifier>
          <type>
            <coding>
              <system value="http://terminology.hl7.org/CodeSystem/v2-0203"/>
              <code value="PLAC"/>
              <display value="Placer Identifier"/>
            </coding>
          </type>
          <system value="http://example.org/order-placer-organization"/>
          <value value="123"/>
        </identifier>
        <requisition>
          <type>
            <coding>
              <system value="http://terminology.hl7.org/CodeSystem/v2-0203"/>
              <code value="PRN"/>
              <display value="Provider number"/>
            </coding>
          </type>
          <system value="http://example.org/ProviderNumber/Requisition"/>
          <value value="ReqID-1234567"/>
        </requisition>
        <status value="active"/>
        <intent value="original-order"/>
        <priority value="urgent"/>
        <code>
          <coding>
            <system value="http://loinc.org"/>
            <code value="777-3"/>
            <display value="Platelets [#/volume] in Blood by Automated count"/>
          </coding>
        </code>
        <subject>
          <reference value="urn:uuid:6b8a0365-5022-403b-a5a5-8d8680d701ef"/>
          <display value="Hans Guggindieluft"/>
        </subject>
        <requester>
          <reference value="urn:uuid:017e8e32-2f3b-4bef-baf1-92c7278a7048"/>
          <display value="Marc Mustermann at Arztpraxis"/>
        </requester>
        <reasonCode>
          <coding>
            <system value="http://snomed.info/sct"/>
            <code value="432805000"/>
          </coding>
          <text value="Suspected deep vein thrombosis (situation)"/>
        </reasonCode>
        <specimen>
          <reference value="urn:uuid:3a98a13d-cf64-40bb-b7a0-87ef45193a74"/>
          <display value="Blood Sample"/>
        </specimen>
      </ServiceRequest>
    </resource>
  </entry>
  <entry>
    <fullUrl value="urn:uuid:8d98f9d1-581b-4495-93aa-4a522fa30a6c"/>
    <resource>
      <ServiceRequest>
        <id value="8d98f9d1-581b-4495-93aa-4a522fa30a6c"/>
        <meta>
          <profile value="http://fhir.ch/ig/ch-lab-report/StructureDefinition/ch-lab-report-servicerequest"/>
        </meta>
        <text>
          <status value="generated"/><div xmlns="http://www.w3.org/1999/xhtml"><a name="ServiceRequest_8d98f9d1-581b-4495-93aa-4a522fa30a6c"> </a><p class="res-header-id"><b>Generated Narrative: ServiceRequest 8d98f9d1-581b-4495-93aa-4a522fa30a6c</b></p><a name="8d98f9d1-581b-4495-93aa-4a522fa30a6c"> </a><a name="hc8d98f9d1-581b-4495-93aa-4a522fa30a6c"> </a><a name="8d98f9d1-581b-4495-93aa-4a522fa30a6c-en-US"> </a><div style="display: inline-block; background-color: #d9e0e7; padding: 6px; margin: 4px; border: 1px solid #8da1b4; border-radius: 5px; line-height: 60%"><p style="margin-bottom: 0px"/><p style="margin-bottom: 0px">Profile: <a href="StructureDefinition-ch-lab-report-servicerequest.html">CH LAB-Report ServiceRequest: Laboratory Order</a></p></div><p><b>identifier</b>: Placer Identifier/123</p><p><b>requisition</b>: Provider number/ReqID-1234567</p><p><b>status</b>: Active</p><p><b>intent</b>: Original Order</p><p><b>priority</b>: Urgent</p><p><b>code</b>: <span title="Codes:{http://loinc.org 1988-5}">C reactive protein [Mass/volume] in Serum or Plasma</span></p><p><b>subject</b>: <a href="Bundle-LabResultReport-1-tvt.html#urn-uuid-6b8a0365-5022-403b-a5a5-8d8680d701ef">Hans Guggindieluft</a></p><p><b>requester</b>: <a href="Bundle-LabResultReport-1-tvt.html#urn-uuid-017e8e32-2f3b-4bef-baf1-92c7278a7048">Marc Mustermann at Arztpraxis</a></p><p><b>reasonCode</b>: <span title="Codes:{http://snomed.info/sct 432805000}">Suspected deep vein thrombosis (situation)</span></p><p><b>specimen</b>: <a href="Bundle-LabResultReport-1-tvt.html#urn-uuid-3a98a13d-cf64-40bb-b7a0-87ef45193a74">Serum specimen</a></p></div>
        </text>
        <identifier>
          <type>
            <coding>
              <system value="http://terminology.hl7.org/CodeSystem/v2-0203"/>
              <code value="PLAC"/>
              <display value="Placer Identifier"/>
            </coding>
          </type>
          <system value="http://example.org/order-placer-organization"/>
          <value value="123"/>
        </identifier>
        <requisition>
          <type>
            <coding>
              <system value="http://terminology.hl7.org/CodeSystem/v2-0203"/>
              <code value="PRN"/>
              <display value="Provider number"/>
            </coding>
          </type>
          <system value="http://example.org/ProviderNumber/Requisition"/>
          <value value="ReqID-1234567"/>
        </requisition>
        <status value="active"/>
        <intent value="original-order"/>
        <priority value="urgent"/>
        <code>
          <coding>
            <system value="http://loinc.org"/>
            <code value="1988-5"/>
            <display value="C reactive protein [Mass/volume] in Serum or Plasma"/>
          </coding>
        </code>
        <subject>
          <reference value="urn:uuid:6b8a0365-5022-403b-a5a5-8d8680d701ef"/>
          <display value="Hans Guggindieluft"/>
        </subject>
        <requester>
          <reference value="urn:uuid:017e8e32-2f3b-4bef-baf1-92c7278a7048"/>
          <display value="Marc Mustermann at Arztpraxis"/>
        </requester>
        <reasonCode>
          <coding>
            <system value="http://snomed.info/sct"/>
            <code value="432805000"/>
          </coding>
          <text value="Suspected deep vein thrombosis (situation)"/>
        </reasonCode>
        <specimen>
          <reference value="urn:uuid:3a98a13d-cf64-40bb-b7a0-87ef45193a74"/>
          <display value="Serum specimen"/>
        </specimen>
      </ServiceRequest>
    </resource>
  </entry>
  <entry>
    <fullUrl value="urn:uuid:e0330c6c-4f9b-46e7-8817-2ae5301f5d14"/>
    <resource>
      <ServiceRequest>
        <id value="e0330c6c-4f9b-46e7-8817-2ae5301f5d14"/>
        <meta>
          <profile value="http://fhir.ch/ig/ch-lab-report/StructureDefinition/ch-lab-report-servicerequest"/>
        </meta>
        <text>
          <status value="generated"/><div xmlns="http://www.w3.org/1999/xhtml"><a name="ServiceRequest_e0330c6c-4f9b-46e7-8817-2ae5301f5d14"> </a><p class="res-header-id"><b>Generated Narrative: ServiceRequest e0330c6c-4f9b-46e7-8817-2ae5301f5d14</b></p><a name="e0330c6c-4f9b-46e7-8817-2ae5301f5d14"> </a><a name="hce0330c6c-4f9b-46e7-8817-2ae5301f5d14"> </a><a name="e0330c6c-4f9b-46e7-8817-2ae5301f5d14-en-US"> </a><div style="display: inline-block; background-color: #d9e0e7; padding: 6px; margin: 4px; border: 1px solid #8da1b4; border-radius: 5px; line-height: 60%"><p style="margin-bottom: 0px"/><p style="margin-bottom: 0px">Profile: <a href="StructureDefinition-ch-lab-report-servicerequest.html">CH LAB-Report ServiceRequest: Laboratory Order</a></p></div><p><b>identifier</b>: Placer Identifier/123</p><p><b>requisition</b>: Provider number/ReqID-1234567</p><p><b>status</b>: Active</p><p><b>intent</b>: Original Order</p><p><b>priority</b>: Urgent</p><p><b>code</b>: <span title="Codes:{http://loinc.org 71427-9}">Fibrin D-dimer [Mass/volume] in Blood by Rapid immunoassay</span></p><p><b>subject</b>: <a href="Bundle-LabResultReport-1-tvt.html#urn-uuid-6b8a0365-5022-403b-a5a5-8d8680d701ef">Hans Guggindieluft</a></p><p><b>requester</b>: <a href="Bundle-LabResultReport-1-tvt.html#urn-uuid-017e8e32-2f3b-4bef-baf1-92c7278a7048">Marc Mustermann at Arztpraxis</a></p><p><b>reasonCode</b>: <span title="Codes:{http://snomed.info/sct 432805000}">Suspected deep vein thrombosis (situation)</span></p><p><b>specimen</b>: <a href="Bundle-LabResultReport-1-tvt.html#urn-uuid-8d38e1bd-dced-45c1-8978-949d6cfd21e8">Blood Sample Coagulation</a></p></div>
        </text>
        <identifier>
          <type>
            <coding>
              <system value="http://terminology.hl7.org/CodeSystem/v2-0203"/>
              <code value="PLAC"/>
              <display value="Placer Identifier"/>
            </coding>
          </type>
          <system value="http://example.org/order-placer-organization"/>
          <value value="123"/>
        </identifier>
        <requisition>
          <type>
            <coding>
              <system value="http://terminology.hl7.org/CodeSystem/v2-0203"/>
              <code value="PRN"/>
              <display value="Provider number"/>
            </coding>
          </type>
          <system value="http://example.org/ProviderNumber/Requisition"/>
          <value value="ReqID-1234567"/>
        </requisition>
        <status value="active"/>
        <intent value="original-order"/>
        <priority value="urgent"/>
        <code>
          <coding>
            <system value="http://loinc.org"/>
            <code value="71427-9"/>
            <display value="Fibrin D-dimer [Mass/volume] in Blood by Rapid immunoassay"/>
          </coding>
        </code>
        <subject>
          <reference value="urn:uuid:6b8a0365-5022-403b-a5a5-8d8680d701ef"/>
          <display value="Hans Guggindieluft"/>
        </subject>
        <requester>
          <reference value="urn:uuid:017e8e32-2f3b-4bef-baf1-92c7278a7048"/>
          <display value="Marc Mustermann at Arztpraxis"/>
        </requester>
        <reasonCode>
          <coding>
            <system value="http://snomed.info/sct"/>
            <code value="432805000"/>
          </coding>
          <text value="Suspected deep vein thrombosis (situation)"/>
        </reasonCode>
        <specimen>
          <reference value="urn:uuid:8d38e1bd-dced-45c1-8978-949d6cfd21e8"/>
          <display value="Blood Sample Coagulation"/>
        </specimen>
      </ServiceRequest>
    </resource>
  </entry>
  <entry>
    <fullUrl value="urn:uuid:017e8e32-2f3b-4bef-baf1-92c7278a7048"/>
    <resource>
      <PractitionerRole>
        <id value="017e8e32-2f3b-4bef-baf1-92c7278a7048"/>
        <meta>
          <profile value="http://fhir.ch/ig/ch-lab-report/StructureDefinition/ch-lab-practitionerrole"/>
        </meta>
        <text>
          <status value="generated"/><div xmlns="http://www.w3.org/1999/xhtml"><a name="PractitionerRole_017e8e32-2f3b-4bef-baf1-92c7278a7048"> </a><p class="res-header-id"><b>Generated Narrative: PractitionerRole 017e8e32-2f3b-4bef-baf1-92c7278a7048</b></p><a name="017e8e32-2f3b-4bef-baf1-92c7278a7048"> </a><a name="hc017e8e32-2f3b-4bef-baf1-92c7278a7048"> </a><a name="017e8e32-2f3b-4bef-baf1-92c7278a7048-en-US"> </a><div style="display: inline-block; background-color: #d9e0e7; padding: 6px; margin: 4px; border: 1px solid #8da1b4; border-radius: 5px; line-height: 60%"><p style="margin-bottom: 0px"/><p style="margin-bottom: 0px">Profile: <a href="StructureDefinition-ch-lab-practitionerrole.html">CH LAB-Report PractitionerRole</a></p></div><p><b>practitioner</b>: <a href="Bundle-LabResultReport-1-tvt.html#urn-uuid-e23d6fa1-88bc-497c-a4df-eb3fa60eaa37">Dr. med. Marc Mustermann</a></p><p><b>organization</b>: <a href="Bundle-LabResultReport-1-tvt.html#urn-uuid-32c4c990-cedb-4999-998d-bab1d55db49f">Bundle: identifier = http://example.org#e65fa2fa-c130-4097-9848-486ee61f58df; type = document; timestamp = 2023-03-09 14:30:00+0100</a></p><p><b>code</b>: <span title="Codes:{urn:oid:2.16.840.1.113883.2.9.6.2.7 2211}">Generalist Medical Practitioners</span></p></div>
        </text>
        <practitioner>
          <reference value="urn:uuid:e23d6fa1-88bc-497c-a4df-eb3fa60eaa37"/>
          <display value="Dr. med. Marc Mustermann"/>
        </practitioner>
        <organization>
          <reference value="urn:uuid:32c4c990-cedb-4999-998d-bab1d55db49f"/>
        </organization>
        <code>
          <coding>
            <system value="urn:oid:2.16.840.1.113883.2.9.6.2.7"/>
            <code value="2211"/>
            <display value="Generalist Medical Practitioners"/>
          </coding>
        </code>
      </PractitionerRole>
    </resource>
  </entry>
  <entry>
    <fullUrl value="urn:uuid:e23d6fa1-88bc-497c-a4df-eb3fa60eaa37"/>
    <resource>
      <Practitioner>
        <id value="e23d6fa1-88bc-497c-a4df-eb3fa60eaa37"/>
        <meta>
          <profile value="http://fhir.ch/ig/ch-lab-report/StructureDefinition/ch-lab-practitioner"/>
        </meta>
        <text>
          <status value="generated"/><div xmlns="http://www.w3.org/1999/xhtml"><a name="Practitioner_e23d6fa1-88bc-497c-a4df-eb3fa60eaa37"> </a><p class="res-header-id"><b>Generated Narrative: Practitioner e23d6fa1-88bc-497c-a4df-eb3fa60eaa37</b></p><a name="e23d6fa1-88bc-497c-a4df-eb3fa60eaa37"> </a><a name="hce23d6fa1-88bc-497c-a4df-eb3fa60eaa37"> </a><a name="e23d6fa1-88bc-497c-a4df-eb3fa60eaa37-en-US"> </a><div style="display: inline-block; background-color: #d9e0e7; padding: 6px; margin: 4px; border: 1px solid #8da1b4; border-radius: 5px; line-height: 60%"><p style="margin-bottom: 0px"/><p style="margin-bottom: 0px">Profile: <a href="StructureDefinition-ch-lab-practitioner.html">CH LAB-Report Practitioner</a></p></div><p><b>identifier</b>: <a href="https://www.gs1.org/standards/id-keys/gln" title="Global Location Number">GLN</a>/7601000050700, <code>urn:oid:2.16.756.5.30.1.123.100.2.1.1</code>/L248519</p><p><b>name</b>: Marc Mustermann (Official)</p><p><b>telecom</b>: ph: 033 333 22 11(Work), <a href="mailto:marc.mustermann@gruppenpraxis.ch">marc.mustermann@gruppenpraxis.ch</a></p><p><b>address</b>: Doktorgasse 2 Messen 3254 CH </p><h3>Qualifications</h3><table class="grid"><tr><td style="display: none">-</td><td><b>Code</b></td></tr><tr><td style="display: none">*</td><td><span title="Codes:{http://terminology.hl7.org/CodeSystem/v2-0360 MD}">Doctor of Medicine</span></td></tr></table></div>
        </text>
        <identifier>
          <system value="urn:oid:2.51.1.3"/>
          <value value="7601000050700"/>
        </identifier>
        <identifier>
          <system value="urn:oid:2.16.756.5.30.1.123.100.2.1.1"/>
          <value value="L248519"/>
        </identifier>
        <name>
          <use value="official"/>
          <family value="Mustermann"/>
          <given value="Marc"/>
          <prefix value="Dr. med.">
            <extension url="http://hl7.org/fhir/StructureDefinition/iso21090-EN-qualifier">
              <valueCode value="AC"/>
            </extension>
          </prefix>
        </name>
        <telecom>
          <system value="phone"/>
          <value value="033 333 22 11"/>
          <use value="work"/>
        </telecom>
        <telecom>
          <system value="email"/>
          <value value="marc.mustermann@gruppenpraxis.ch"/>
          <use value="work"/>
        </telecom>
        <address>
          <line value="Doktorgasse 2"/>
          <city value="Messen"/>
          <postalCode value="3254"/>
          <country value="CH"/>
        </address>
        <qualification>
          <code>
            <coding>
              <system value="http://terminology.hl7.org/CodeSystem/v2-0360"/>
              <code value="MD"/>
              <display value="Doctor of Medicine"/>
            </coding>
          </code>
        </qualification>
      </Practitioner>
    </resource>
  </entry>
  <entry>
    <fullUrl value="urn:uuid:32c4c990-cedb-4999-998d-bab1d55db49f"/>
    <resource>
      <Organization>
        <id value="32c4c990-cedb-4999-998d-bab1d55db49f"/>
        <meta>
          <profile value="http://fhir.ch/ig/ch-core/StructureDefinition/ch-core-organization"/>
        </meta>
        <text>
          <status value="generated"/><div xmlns="http://www.w3.org/1999/xhtml"><a name="Organization_32c4c990-cedb-4999-998d-bab1d55db49f"> </a><p class="res-header-id"><b>Generated Narrative: Organization 32c4c990-cedb-4999-998d-bab1d55db49f</b></p><a name="32c4c990-cedb-4999-998d-bab1d55db49f"> </a><a name="hc32c4c990-cedb-4999-998d-bab1d55db49f"> </a><a name="32c4c990-cedb-4999-998d-bab1d55db49f-en-US"> </a><div style="display: inline-block; background-color: #d9e0e7; padding: 6px; margin: 4px; border: 1px solid #8da1b4; border-radius: 5px; line-height: 60%"><p style="margin-bottom: 0px"/><p style="margin-bottom: 0px">Profile: <a href="http://fhir.ch/ig/ch-core/6.0.0-ballot/StructureDefinition-ch-core-organization.html">CH Core Organization</a></p></div><p><b>identifier</b>: <a href="https://www.gs1.org/standards/id-keys/gln" title="Global Location Number">GLN</a>/7601000235503</p><p><b>name</b>: Arztpraxis Messen</p><p><b>telecom</b>: <a href="tel:+41555545566">+41555545566</a>, <a href="mailto:info@arztpraxis.ch">info@arztpraxis.ch</a>, <a href="http://www.arztpraxis.ch">http://www.arztpraxis.ch</a></p><p><b>address</b>: Doktorgasse 2 Messen 3254 CH </p></div>
        </text>
        <identifier>
          <system value="urn:oid:2.51.1.3"/>
          <value value="7601000235503"/>
        </identifier>
        <name value="Arztpraxis Messen"/>
        <telecom>
          <system value="phone"/>
          <value value="+41555545566"/>
          <use value="work"/>
        </telecom>
        <telecom>
          <system value="email"/>
          <value value="info@arztpraxis.ch"/>
          <use value="work"/>
        </telecom>
        <telecom>
          <system value="url"/>
          <value value="http://www.arztpraxis.ch"/>
          <use value="work"/>
        </telecom>
        <address>
          <line value="Doktorgasse 2"/>
          <city value="Messen"/>
          <postalCode value="3254"/>
          <country value="CH"/>
        </address>
      </Organization>
    </resource>
  </entry>
  <entry>
    <fullUrl value="urn:uuid:12328339-f7d6-4bb6-80e4-89fd03ce5052"/>
    <resource>
      <Practitioner>
        <id value="12328339-f7d6-4bb6-80e4-89fd03ce5052"/>
        <meta>
          <profile value="http://fhir.ch/ig/ch-lab-report/StructureDefinition/ch-lab-practitioner"/>
        </meta>
        <text>
          <status value="generated"/><div xmlns="http://www.w3.org/1999/xhtml"><a name="Practitioner_12328339-f7d6-4bb6-80e4-89fd03ce5052"> </a><p class="res-header-id"><b>Generated Narrative: Practitioner 12328339-f7d6-4bb6-80e4-89fd03ce5052</b></p><a name="12328339-f7d6-4bb6-80e4-89fd03ce5052"> </a><a name="hc12328339-f7d6-4bb6-80e4-89fd03ce5052"> </a><a name="12328339-f7d6-4bb6-80e4-89fd03ce5052-en-US"> </a><div style="display: inline-block; background-color: #d9e0e7; padding: 6px; margin: 4px; border: 1px solid #8da1b4; border-radius: 5px; line-height: 60%"><p style="margin-bottom: 0px"/><p style="margin-bottom: 0px">Profile: <a href="StructureDefinition-ch-lab-practitioner.html">CH LAB-Report Practitioner</a></p></div><p><b>identifier</b>: <a href="https://www.gs1.org/standards/id-keys/gln" title="Global Location Number">GLN</a>/7601000050717, <code>urn:oid:2.16.756.5.30.1.123.100.2.1.1</code>/Y274589</p><p><b>name</b>: Eva Erlenmeyer (Official)</p><p><b>telecom</b>: ph: 033 444 55 66(Work), <a href="mailto:eva.erlenmeyer@labor-pipette.ch">eva.erlenmeyer@labor-pipette.ch</a></p><p><b>address</b>: Laborstrasse 23 Olten 4600 CH </p><h3>Qualifications</h3><table class="grid"><tr><td style="display: none">-</td><td><b>Code</b></td></tr><tr><td style="display: none">*</td><td><span title="Codes:{http://terminology.hl7.org/CodeSystem/v2-0360 MD}">Doctor of Medicine</span></td></tr></table></div>
        </text>
        <identifier>
          <system value="urn:oid:2.51.1.3"/>
          <value value="7601000050717"/>
        </identifier>
        <identifier>
          <system value="urn:oid:2.16.756.5.30.1.123.100.2.1.1"/>
          <value value="Y274589"/>
        </identifier>
        <name>
          <use value="official"/>
          <family value="Erlenmeyer"/>
          <given value="Eva"/>
          <prefix value="Dr. med.">
            <extension url="http://hl7.org/fhir/StructureDefinition/iso21090-EN-qualifier">
              <valueCode value="AC"/>
            </extension>
          </prefix>
        </name>
        <telecom>
          <system value="phone"/>
          <value value="033 444 55 66"/>
          <use value="work"/>
        </telecom>
        <telecom>
          <system value="email"/>
          <value value="eva.erlenmeyer@labor-pipette.ch"/>
          <use value="work"/>
        </telecom>
        <address>
          <line value="Laborstrasse 23"/>
          <city value="Olten"/>
          <postalCode value="4600"/>
          <country value="CH"/>
        </address>
        <qualification>
          <code>
            <coding>
              <system value="http://terminology.hl7.org/CodeSystem/v2-0360"/>
              <code value="MD"/>
              <display value="Doctor of Medicine"/>
            </coding>
          </code>
        </qualification>
      </Practitioner>
    </resource>
  </entry>
  <entry>
    <fullUrl value="urn:uuid:8472931c-fbd0-437b-9ed1-4f66472c78b5"/>
    <resource>
      <PractitionerRole>
        <id value="8472931c-fbd0-437b-9ed1-4f66472c78b5"/>
        <meta>
          <profile value="http://fhir.ch/ig/ch-lab-report/StructureDefinition/ch-lab-practitionerrole"/>
        </meta>
        <text>
          <status value="generated"/><div xmlns="http://www.w3.org/1999/xhtml"><a name="PractitionerRole_8472931c-fbd0-437b-9ed1-4f66472c78b5"> </a><p class="res-header-id"><b>Generated Narrative: PractitionerRole 8472931c-fbd0-437b-9ed1-4f66472c78b5</b></p><a name="8472931c-fbd0-437b-9ed1-4f66472c78b5"> </a><a name="hc8472931c-fbd0-437b-9ed1-4f66472c78b5"> </a><a name="8472931c-fbd0-437b-9ed1-4f66472c78b5-en-US"> </a><div style="display: inline-block; background-color: #d9e0e7; padding: 6px; margin: 4px; border: 1px solid #8da1b4; border-radius: 5px; line-height: 60%"><p style="margin-bottom: 0px"/><p style="margin-bottom: 0px">Profile: <a href="StructureDefinition-ch-lab-practitionerrole.html">CH LAB-Report PractitionerRole</a></p></div><p><b>practitioner</b>: <a href="Bundle-LabResultReport-1-tvt.html#urn-uuid-12328339-f7d6-4bb6-80e4-89fd03ce5052">Bundle: identifier = http://example.org#e65fa2fa-c130-4097-9848-486ee61f58df; type = document; timestamp = 2023-03-09 14:30:00+0100</a></p><p><b>organization</b>: <a href="Bundle-LabResultReport-1-tvt.html#urn-uuid-84483dc8-81d3-41cc-8d24-10c241279024">Bundle: identifier = http://example.org#e65fa2fa-c130-4097-9848-486ee61f58df; type = document; timestamp = 2023-03-09 14:30:00+0100</a></p><p><b>code</b>: <span title="Codes:{urn:oid:2.16.840.1.113883.2.9.6.2.7 3212}">Medical and Pathology Laboratory Technicians</span></p></div>
        </text>
        <practitioner>
          <reference value="urn:uuid:12328339-f7d6-4bb6-80e4-89fd03ce5052"/>
        </practitioner>
        <organization>
          <reference value="urn:uuid:84483dc8-81d3-41cc-8d24-10c241279024"/>
        </organization>
        <code>
          <coding>
            <system value="urn:oid:2.16.840.1.113883.2.9.6.2.7"/>
            <code value="3212"/>
            <display value="Medical and Pathology Laboratory Technicians"/>
          </coding>
        </code>
      </PractitionerRole>
    </resource>
  </entry>
  <entry>
    <fullUrl value="urn:uuid:84483dc8-81d3-41cc-8d24-10c241279024"/>
    <resource>
      <Organization>
        <id value="84483dc8-81d3-41cc-8d24-10c241279024"/>
        <meta>
          <profile value="http://fhir.ch/ig/ch-core/StructureDefinition/ch-core-organization"/>
        </meta>
        <text>
          <status value="generated"/><div xmlns="http://www.w3.org/1999/xhtml"><a name="Organization_84483dc8-81d3-41cc-8d24-10c241279024"> </a><p class="res-header-id"><b>Generated Narrative: Organization 84483dc8-81d3-41cc-8d24-10c241279024</b></p><a name="84483dc8-81d3-41cc-8d24-10c241279024"> </a><a name="hc84483dc8-81d3-41cc-8d24-10c241279024"> </a><a name="84483dc8-81d3-41cc-8d24-10c241279024-en-US"> </a><div style="display: inline-block; background-color: #d9e0e7; padding: 6px; margin: 4px; border: 1px solid #8da1b4; border-radius: 5px; line-height: 60%"><p style="margin-bottom: 0px"/><p style="margin-bottom: 0px">Profile: <a href="http://fhir.ch/ig/ch-core/6.0.0-ballot/StructureDefinition-ch-core-organization.html">CH Core Organization</a></p></div><p><b>identifier</b>: <a href="https://www.gs1.org/standards/id-keys/gln" title="Global Location Number">GLN</a>/7601000234407</p><p><b>name</b>: Labor Pipette</p><p><b>telecom</b>: <a href="tel:+41223345566">+41223345566</a></p><p><b>address</b>: Laborstrasse 23 Olten 4600 CH (work)</p><h3>Contacts</h3><table class="grid"><tr><td style="display: none">-</td><td><b>Name</b></td><td><b>Telecom</b></td><td><b>Address</b></td></tr><tr><td style="display: none">*</td><td>Dr. Eva Erlenmeyer(Official)</td><td><a href="mailto:eva.erlenmeyer@labor-pipette.ch">eva.erlenmeyer@labor-pipette.ch</a></td><td>Laborstrasse 23 4. Stock Olten 4600 CH </td></tr></table></div>
        </text>
        <identifier>
          <system value="urn:oid:2.51.1.3"/>
          <value value="7601000234407"/>
        </identifier>
        <name value="Labor Pipette"/>
        <telecom>
          <system value="phone"/>
          <value value="+41223345566"/>
          <use value="work"/>
        </telecom>
        <address>
          <use value="work"/>
          <line value="Laborstrasse 23"/>
          <city value="Olten"/>
          <postalCode value="4600"/>
          <country value="CH"/>
        </address>
        <contact>
          <name>
            <use value="official"/>
            <text value="Dr. Eva Erlenmeyer"/>
            <family value="Erlenmeyer"/>
            <given value="Eva"/>
            <prefix value="Dr. med."/>
          </name>
          <telecom>
            <system value="email"/>
            <value value="eva.erlenmeyer@labor-pipette.ch"/>
            <use value="work"/>
          </telecom>
          <address>
            <line value="Laborstrasse 23"/>
            <line value="4. Stock"/>
            <city value="Olten"/>
            <postalCode value="4600"/>
            <country value="CH"/>
          </address>
        </contact>
      </Organization>
    </resource>
  </entry>
</Bundle>