<?xml version="1.0" encoding="UTF-8"?>

<Bundle xmlns="http://hl7.org/fhir">
  <id value="example-document"/>
  <identifier>
    <system value="urn:ietf:rfc:3986"/>
    <value value="urn:uuid:26d3dff7-ab05-4737-a49c-5eccd3359505"/>
  </identifier>
  <type value="document"/>
  <timestamp value="2025-03-05T12:00:00Z"/>
  <entry>
    <fullUrl value="urn:uuid:acc39a67-5f62-4170-ad05-d7cb70f43ea6"/>
    <resource>
      <Composition>
        <id value="acc39a67-5f62-4170-ad05-d7cb70f43ea6"/>
        <text>
          <status value="generated"/><div xmlns="http://www.w3.org/1999/xhtml"><a name="Composition_acc39a67-5f62-4170-ad05-d7cb70f43ea6"> </a><p class="res-header-id"><b>Generated Narrative: Composition acc39a67-5f62-4170-ad05-d7cb70f43ea6</b></p><a name="acc39a67-5f62-4170-ad05-d7cb70f43ea6"> </a><a name="hcacc39a67-5f62-4170-ad05-d7cb70f43ea6"> </a><a name="acc39a67-5f62-4170-ad05-d7cb70f43ea6-en-US"> </a><p><b>status</b>: Final</p><p><b>type</b>: <span title="Codes:{http://loinc.org 34133-9}">Summary of episode note</span></p><p><b>date</b>: 2025-03-05 12:00:00+0000</p><p><b>author</b>: <a href="Bundle-example-document.html#urn-uuid-a8d35919-6883-4312-8b26-11b964c0e0aa">Bundle: identifier = UUID:26d3dff7-ab05-4737-a49c-5eccd3359505; type = document; timestamp = 2025-03-05 12:00:00+0000</a></p><p><b>title</b>: Clinical Summary Document</p></div>
        </text>
        <status value="final"/>
        <type>
          <coding>
            <system value="http://loinc.org"/>
            <code value="34133-9"/>
            <display value="Summary of episode note"/>
          </coding>
        </type>
        <subject>
          <reference value="urn:uuid:146d8255-8963-4bdd-b69c-faf9dc7455ca"/>
        </subject>
        <date value="2025-03-05T12:00:00Z"/>
        <author>
          <reference value="urn:uuid:a8d35919-6883-4312-8b26-11b964c0e0aa"/>
        </author>
        <title value="Clinical Summary Document"/>
        <section>
          <title value="Vital Signs"/>
          <code>
            <coding>
              <system value="http://loinc.org"/>
              <code value="8716-3"/>
              <display value="Vital signs"/>
            </coding>
          </code>
          <entry>
            <reference value="urn:uuid:e9690e11-fd84-40f3-acc0-e833ad149259"/>
          </entry>
        </section>
      </Composition>
    </resource>
  </entry>
  <entry>
    <fullUrl value="urn:uuid:146d8255-8963-4bdd-b69c-faf9dc7455ca"/>
    <resource>
      <Patient>
        <id value="146d8255-8963-4bdd-b69c-faf9dc7455ca"/>
        <text>
          <status value="generated"/><div xmlns="http://www.w3.org/1999/xhtml"><a name="Patient_146d8255-8963-4bdd-b69c-faf9dc7455ca"> </a><p class="res-header-id"><b>Generated Narrative: Patient 146d8255-8963-4bdd-b69c-faf9dc7455ca</b></p><a name="146d8255-8963-4bdd-b69c-faf9dc7455ca"> </a><a name="hc146d8255-8963-4bdd-b69c-faf9dc7455ca"> </a><a name="146d8255-8963-4bdd-b69c-faf9dc7455ca-en-US"> </a><p style="border: 1px #661aff solid; background-color: #e6e6ff; padding: 10px;">John Doe  Male, DoB: 1980-01-01</p><hr/></div>
        </text>
        <name>
          <family value="Doe"/>
          <given value="John"/>
        </name>
        <gender value="male"/>
        <birthDate value="1980-01-01"/>
      </Patient>
    </resource>
  </entry>
  <entry>
    <fullUrl value="urn:uuid:a8d35919-6883-4312-8b26-11b964c0e0aa"/>
    <resource>
      <Practitioner>
        <id value="a8d35919-6883-4312-8b26-11b964c0e0aa"/>
        <text>
          <status value="generated"/><div xmlns="http://www.w3.org/1999/xhtml"><a name="Practitioner_a8d35919-6883-4312-8b26-11b964c0e0aa"> </a><p class="res-header-id"><b>Generated Narrative: Practitioner a8d35919-6883-4312-8b26-11b964c0e0aa</b></p><a name="a8d35919-6883-4312-8b26-11b964c0e0aa"> </a><a name="hca8d35919-6883-4312-8b26-11b964c0e0aa"> </a><a name="a8d35919-6883-4312-8b26-11b964c0e0aa-en-US"> </a><p><b>name</b>: Alice Smith </p></div>
        </text>
        <name>
          <family value="Smith"/>
          <given value="Alice"/>
        </name>
      </Practitioner>
    </resource>
  </entry>
  <entry>
    <fullUrl value="urn:uuid:e9690e11-fd84-40f3-acc0-e833ad149259"/>
    <resource>
      <Observation>
        <id value="e9690e11-fd84-40f3-acc0-e833ad149259"/>
        <text>
          <status value="generated"/><div xmlns="http://www.w3.org/1999/xhtml"><a name="Observation_e9690e11-fd84-40f3-acc0-e833ad149259"> </a><p class="res-header-id"><b>Generated Narrative: Observation e9690e11-fd84-40f3-acc0-e833ad149259</b></p><a name="e9690e11-fd84-40f3-acc0-e833ad149259"> </a><a name="hce9690e11-fd84-40f3-acc0-e833ad149259"> </a><a name="e9690e11-fd84-40f3-acc0-e833ad149259-en-US"> </a><p><b>status</b>: Final</p><p><b>category</b>: <span title="Codes:{http://terminology.hl7.org/CodeSystem/observation-category vital-signs}">Vital Signs</span></p><p><b>code</b>: <span title="Codes:{http://loinc.org 85354-9}">Blood pressure panel with all children optional</span></p><p><b>subject</b>: <a href="Bundle-example-document.html#urn-uuid-146d8255-8963-4bdd-b69c-faf9dc7455ca">Bundle: identifier = UUID:26d3dff7-ab05-4737-a49c-5eccd3359505; type = document; timestamp = 2025-03-05 12:00:00+0000</a></p><p><b>effective</b>: 2025-03-05 10:00:00+0000</p><p><b>performer</b>: <a href="Bundle-example-document.html#urn-uuid-a8d35919-6883-4312-8b26-11b964c0e0aa">Bundle: identifier = UUID:26d3dff7-ab05-4737-a49c-5eccd3359505; type = document; timestamp = 2025-03-05 12:00:00+0000</a></p><blockquote><p><b>component</b></p><p><b>code</b>: <span title="Codes:{http://loinc.org 8480-6}">Systolic blood pressure</span></p><p><b>value</b>: 120 mmHg<span style="background: LightGoldenRodYellow"> (Details: UCUM  codemm[Hg] = 'mm[Hg]')</span></p></blockquote><blockquote><p><b>component</b></p><p><b>code</b>: <span title="Codes:{http://loinc.org 8462-4}">Diastolic blood pressure</span></p><p><b>value</b>: 80 mmHg<span style="background: LightGoldenRodYellow"> (Details: UCUM  codemm[Hg] = 'mm[Hg]')</span></p></blockquote></div>
        </text>
        <status value="final"/>
        <category>
          <coding>
            <system value="http://terminology.hl7.org/CodeSystem/observation-category"/>
            <code value="vital-signs"/>
            <display value="Vital Signs"/>
          </coding>
        </category>
        <code>
          <coding>
            <system value="http://loinc.org"/>
            <code value="85354-9"/>
            <display value="Blood pressure panel with all children optional"/>
          </coding>
        </code>
        <subject>
          <reference value="urn:uuid:146d8255-8963-4bdd-b69c-faf9dc7455ca"/>
        </subject>
        <effectiveDateTime value="2025-03-05T10:00:00Z"/>
        <performer>
          <reference value="urn:uuid:a8d35919-6883-4312-8b26-11b964c0e0aa"/>
        </performer>
        <component>
          <code>
            <coding>
              <system value="http://loinc.org"/>
              <code value="8480-6"/>
              <display value="Systolic blood pressure"/>
            </coding>
          </code>
          <valueQuantity>
            <value value="120"/>
            <unit value="mmHg"/>
            <system value="http://unitsofmeasure.org"/>
            <code value="mm[Hg]"/>
          </valueQuantity>
        </component>
        <component>
          <code>
            <coding>
              <system value="http://loinc.org"/>
              <code value="8462-4"/>
              <display value="Diastolic blood pressure"/>
            </coding>
          </code>
          <valueQuantity>
            <value value="80"/>
            <unit value="mmHg"/>
            <system value="http://unitsofmeasure.org"/>
            <code value="mm[Hg]"/>
          </valueQuantity>
        </component>
      </Observation>
    </resource>
  </entry>
</Bundle>