{
  "resourceType": "Bundle",
  "id": "DocumentRadiologyOrder",
  "meta": {
    "profile": [
      "http://fhir.ch/ig/ch-rad-order/StructureDefinition/ch-rad-order-document"
    ]
  },
  "identifier": {
    "system": "urn:ietf:rfc:3986",
    "value": "urn:uuid:26d3dff7-ab05-4737-a49c-5eccd33595f7"
  },
  "type": "document",
  "timestamp": "2019-04-01T20:18:41.341+00:00",
  "entry": [
    {
      "fullUrl": "http://example.com/fhir/Composition/CompositionRadiologyOrder",
      "resource": {
        "resourceType": "Composition",
        "id": "CompositionRadiologyOrder",
        "meta": {
          "profile": [
            "http://fhir.ch/ig/ch-rad-order/StructureDefinition/ch-rad-order-composition"
          ]
        },
        "text": {
          "status": "additional",
          "div": "<div xmlns=\"http://www.w3.org/1999/xhtml\"><div>Radiology Order</div></div>"
        },
        "extension": [
          {
            "extension": [
              {
                "url": "enterer",
                "valueReference": {
                  "reference": "PractitionerRole/DAtaentererHappyDoctors"
                }
              }
            ],
            "url": "http://fhir.ch/ig/ch-core/StructureDefinition/ch-ext-epr-dataenterer"
          },
          {
            "url": "http://fhir.ch/ig/ch-orf/StructureDefinition/ch-orf-receiver",
            "valueReference": {
              "reference": "PractitionerRole/RadiologyDepartmentHappyHospital"
            }
          },
          {
            "url": "http://fhir.ch/ig/ch-orf/StructureDefinition/ch-orf-copyreceiver",
            "valueReference": {
              "reference": "Patient/SUffererCopyReceiver"
            }
          }
        ],
        "status": "final",
        "type": {
          "coding": [
            {
              "system": "urn:oid:2.16.756.5.30.1.127.3.4",
              "code": "2161000195103",
              "display": "Imaging order (record artifact)"
            }
          ]
        },
        "category": [
          {
            "coding": [
              {
                "system": "http://snomed.info/sct",
                "code": "721963009",
                "display": "Order (record artifact)"
              }
            ]
          }
        ],
        "subject": {
          "reference": "Patient/SUfferer"
        },
        "date": "2019-04-01T20:18:41.341+00:00",
        "author": [
          {
            "reference": "PractitionerRole/ORderplacerHappyDoctors"
          }
        ],
        "title": "Radiologieauftrag",
        "section": [
          {
            "title": "Order-Referral",
            "code": {
              "coding": [
                {
                  "system": "http://loinc.org",
                  "code": "93037-0",
                  "display": "Portable medical order form"
                }
              ]
            },
            "entry": [
              {
                "reference": "Questionnaire/QuestionnaireRadiologyOrder"
              },
              {
                "reference": "QuestionnaireResponse/QuestionnaireResponseRadiologyOrder"
              },
              {
                "reference": "ServiceRequest/ServiceRequestRadiologyOrder"
              }
            ]
          }
        ]
      }
    },
    {
      "fullUrl": "http://example.com/fhir/Questionnaire/QuestionnaireRadiologyOrder",
      "resource": {
        "resourceType": "Questionnaire",
        "id": "QuestionnaireRadiologyOrder",
        "meta": {
          "profile": [
            "http://fhir.ch/ig/ch-orf/StructureDefinition/ch-orf-questionnaire",
            "http://hl7.org/fhir/uv/sdc/StructureDefinition/sdc-questionnaire",
            "http://hl7.org/fhir/uv/sdc/StructureDefinition/sdc-questionnaire-extract"
          ]
        },
        "text": {
          "status": "extensions",
          "div": "<div xmlns=\"http://www.w3.org/1999/xhtml\"><p><b>Generated Narrative</b></p><div style=\"display: inline-block; background-color: #d9e0e7; padding: 6px; margin: 4px; border: 1px solid #8da1b4; border-radius: 5px; line-height: 60%\"><p style=\"margin-bottom: 0px\">Resource \"QuestionnaireRadiologyOrder\" </p><p style=\"margin-bottom: 0px\">Profiles: <a href=\"http://fhir.ch/ig/ch-orf/StructureDefinition-ch-orf-questionnaire.html\">CH ORF Questionnaire</a>, <a href=\"http://hl7.org/fhir/uv/sdc/2019May/sdc-questionnaire.html\">Questionnaire</a>, <a href=\"http://hl7.org/fhir/uv/sdc/2019May/sdc-questionnaire-extract.html\">Extractable Questionnaire</a></p></div><p><b>Target structure map</b>: <a href=\"StructureMap-RadOrderQrToBundle.html\">RadOrderQrToBundle</a></p><p><b>Source structure map</b>: <a href=\"http://fhir.ch/ig/ch-orf/StructureMap/OrfPrepopBundleToQr\">http://fhir.ch/ig/ch-orf/StructureMap/OrfPrepopBundleToQr</a></p><blockquote><p><b>Launch context resources</b></p><p><b>value</b>: Bundle</p><p><b>value</b>: Bundle</p><p><b>value</b>: The Bundle that is to be used to pre-populate the form</p></blockquote><p><b>url</b>: <code>http://fhir.ch/ig/ch-rad-order/StructureDefinition/QuestionnaireRadiologyOrder</code></p><p><b>name</b>: QuestionnaireRadiologyOrder</p><p><b>title</b>: Questionnaire Radiology Order</p><p><b>derivedFrom</b>: <a href=\"http://fhir.ch/ig/ch-orf/Questionnaire/ch-orf-questionnaire\">http://fhir.ch/ig/ch-orf/Questionnaire/ch-orf-questionnaire</a></p><p><b>status</b>: active</p><p><b>subjectType</b>: Patient</p><p><b>date</b>: 2021-02-24</p><p><b>publisher</b>: HL7 Switzerland</p><blockquote><p><b>item</b></p><p><b>linkId</b>: order</p><p><b>definition</b>: <a href=\"StructureDefinition-ch-rad-order-document.html\">CH RAD-Order Document</a></p><p><b>text</b>: Auftrag</p><p><b>type</b>: group</p><p><b>required</b>: true</p><blockquote><p><b>item</b></p><p><b>linkId</b>: order.placerOrderIdentifier</p><p><b>definition</b>: <a href=\"StructureDefinition-ch-rad-order-servicerequest.html\">CH RAD-Order ServiceRequest</a></p><p><b>text</b>: Auftragsnummer des Auftraggebers</p><p><b>type</b>: string</p><p><b>required</b>: true</p></blockquote><blockquote><p><b>item</b></p><p><b>hidden</b>: true</p><p><b>linkId</b>: order.placerOrderIdentifierDomain</p><p><b>definition</b>: <a href=\"StructureDefinition-ch-rad-order-servicerequest.html\">CH RAD-Order ServiceRequest</a></p><p><b>text</b>: Identifier Domain der Auftragsnummer des Auftraggebers</p><p><b>type</b>: string</p><p><b>required</b>: true</p></blockquote><blockquote><p><b>item</b></p><p><b>linkId</b>: order.fillerOrderIdentifier</p><p><b>definition</b>: <a href=\"StructureDefinition-ch-rad-order-servicerequest.html\">CH RAD-Order ServiceRequest</a></p><p><b>text</b>: Auftragsnummer des Auftragsempfängers</p><p><b>type</b>: string</p></blockquote><blockquote><p><b>item</b></p><p><b>hidden</b>: true</p><p><b>linkId</b>: order.fillerOrderIdentifierDomain</p><p><b>definition</b>: <a href=\"StructureDefinition-ch-rad-order-servicerequest.html\">CH RAD-Order ServiceRequest</a></p><p><b>text</b>: Identifier Domain der Auftragsnummer des Auftragsempfängers</p><p><b>type</b>: string</p></blockquote><blockquote><p><b>item</b></p><p><b>hidden</b>: true</p><p><b>linkId</b>: order.precedentDocumentIdentifier</p><p><b>definition</b>: <a href=\"StructureDefinition-ch-rad-order-composition.html\">CH RAD-Order Composition</a></p><p><b>text</b>: Identifier des Vorgängerdokuments</p><p><b>type</b>: string</p></blockquote><blockquote><p><b>item</b></p><p><b>linkId</b>: order.notificationContactDocument</p><p><b>definition</b>: <a href=\"StructureDefinition-ch-rad-order-composition.html\">CH RAD-Order Composition</a></p><p><b>text</b>: Dringender Benachrichtigungskontakt für dieses Dokument</p><p><b>type</b>: group</p></blockquote><blockquote><p><b>item</b></p><p><b>linkId</b>: order.notificationContactDocumentResponse</p><p><b>definition</b>: <a href=\"StructureDefinition-ch-rad-order-composition.html\">CH RAD-Order Composition</a></p><p><b>text</b>: Dringender Benachrichtigungskontakt für die Antwort auf dieses Dokument</p><p><b>type</b>: group</p></blockquote><blockquote><p><b>item</b></p><p><b>linkId</b>: order.priority</p><p><b>definition</b>: <a href=\"StructureDefinition-ch-rad-order-servicerequest.html\">CH RAD-Order ServiceRequest</a></p><p><b>text</b>: Auftragspriorität</p><p><b>type</b>: choice</p></blockquote></blockquote><blockquote><p><b>item</b></p><p><b>linkId</b>: patient</p><p><b>definition</b>: <a href=\"StructureDefinition-ch-rad-order-composition.html\">CH RAD-Order Composition</a></p><p><b>text</b>: Patient</p><p><b>type</b>: group</p><p><b>required</b>: true</p><blockquote><p><b>item</b></p><p><b>linkId</b>: patient.familyName</p><p><b>definition</b>: <a href=\"http://fhir.ch/ig/ch-core/StructureDefinition-ch-core-patient.html\">CH Core Patient Profile</a></p><p><b>text</b>: Name</p><p><b>type</b>: string</p></blockquote><blockquote><p><b>item</b></p><p><b>linkId</b>: patient.maidenName</p><p><b>definition</b>: <a href=\"http://fhir.ch/ig/ch-core/StructureDefinition-ch-core-patient.html\">CH Core Patient Profile</a></p><p><b>text</b>: Ledigname</p><p><b>type</b>: string</p></blockquote><blockquote><p><b>item</b></p><p><b>linkId</b>: patient.givenName</p><p><b>definition</b>: <a href=\"http://fhir.ch/ig/ch-core/StructureDefinition-ch-core-patient.html\">CH Core Patient Profile</a></p><p><b>text</b>: Vorname</p><p><b>type</b>: string</p></blockquote><blockquote><p><b>item</b></p><p><b>linkId</b>: patient.localPid</p><p><b>definition</b>: <a href=\"http://fhir.ch/ig/ch-core/StructureDefinition-ch-core-patient.html\">CH Core Patient Profile</a></p><p><b>text</b>: Lokale Patienten-ID</p><p><b>type</b>: string</p></blockquote><blockquote><p><b>item</b></p><p><b>hidden</b>: true</p><p><b>linkId</b>: patient.localPidDomain</p><p><b>definition</b>: <a href=\"http://fhir.ch/ig/ch-core/StructureDefinition-ch-core-patient.html\">CH Core Patient Profile</a></p><p><b>text</b>: Lokale Patienten-ID Domain</p><p><b>type</b>: string</p></blockquote><blockquote><p><b>item</b></p><p><b>linkId</b>: patient.birthDate</p><p><b>definition</b>: <a href=\"http://fhir.ch/ig/ch-core/StructureDefinition-ch-core-patient.html\">CH Core Patient Profile</a></p><p><b>text</b>: Geburtsdatum</p><p><b>type</b>: date</p></blockquote><blockquote><p><b>item</b></p><p><b>linkId</b>: patient.gender</p><p><b>definition</b>: <a href=\"http://fhir.ch/ig/ch-core/StructureDefinition-ch-core-patient.html\">CH Core Patient Profile</a></p><p><b>text</b>: Geschlecht</p><p><b>type</b>: choice</p></blockquote><blockquote><p><b>item</b></p><p><b>linkId</b>: patient.maritalStatus</p><p><b>definition</b>: <a href=\"http://fhir.ch/ig/ch-core/StructureDefinition-ch-core-patient.html\">CH Core Patient Profile</a></p><p><b>text</b>: Zivilstand</p><p><b>type</b>: choice</p></blockquote><blockquote><p><b>item</b></p><p><b>linkId</b>: patient.phone</p><p><b>definition</b>: <a href=\"http://fhir.ch/ig/ch-core/StructureDefinition-ch-core-patient.html\">CH Core Patient Profile</a></p><p><b>text</b>: Telefon</p><p><b>type</b>: string</p><p><b>repeats</b>: true</p></blockquote><blockquote><p><b>item</b></p><p><b>linkId</b>: patient.email</p><p><b>definition</b>: <a href=\"http://fhir.ch/ig/ch-core/StructureDefinition-ch-core-patient.html\">CH Core Patient Profile</a></p><p><b>text</b>: E-Mail</p><p><b>type</b>: string</p></blockquote><blockquote><p><b>item</b></p><p><b>linkId</b>: patient.streetAddressLine</p><p><b>definition</b>: <a href=\"http://fhir.ch/ig/ch-core/StructureDefinition-ch-core-patient.html\">CH Core Patient Profile</a></p><p><b>text</b>: Strasse, Hausnummer, Postfach etc.</p><p><b>type</b>: string</p><p><b>repeats</b>: true</p></blockquote><blockquote><p><b>item</b></p><p><b>linkId</b>: patient.postalCode</p><p><b>definition</b>: <a href=\"http://fhir.ch/ig/ch-core/StructureDefinition-ch-core-patient.html\">CH Core Patient Profile</a></p><p><b>text</b>: PLZ</p><p><b>type</b>: string</p></blockquote><blockquote><p><b>item</b></p><p><b>linkId</b>: patient.city</p><p><b>definition</b>: <a href=\"http://fhir.ch/ig/ch-core/StructureDefinition-ch-core-patient.html\">CH Core Patient Profile</a></p><p><b>text</b>: Ort</p><p><b>type</b>: string</p></blockquote><blockquote><p><b>item</b></p><p><b>linkId</b>: patient.country</p><p><b>definition</b>: <a href=\"http://fhir.ch/ig/ch-core/StructureDefinition-ch-core-patient.html\">CH Core Patient Profile</a></p><p><b>text</b>: Land</p><p><b>type</b>: string</p></blockquote><blockquote><p><b>item</b></p><p><b>linkId</b>: patient.languageOfCorrespondance</p><p><b>definition</b>: <a href=\"http://fhir.ch/ig/ch-core/StructureDefinition-ch-core-patient.html\">CH Core Patient Profile</a></p><p><b>text</b>: Korrespondenssprache</p><p><b>type</b>: choice</p><p><b>answerValueSet</b>: <a href=\"http://fhir.ch/ig/ch-epr-term/ValueSet-DocumentEntry.languageCode.html\">DocumentEntry.languageCode</a></p></blockquote></blockquote><blockquote><p><b>item</b></p><p><b>linkId</b>: requestedEncounter</p><p><b>definition</b>: <a href=\"StructureDefinition-ch-rad-order-servicerequest.html\">CH RAD-Order ServiceRequest</a></p><p><b>text</b>: Patientenaufnahme</p><p><b>type</b>: group</p><blockquote><p><b>item</b></p><p><b>linkId</b>: requestedEncounter.class</p><p><b>definition</b>: <a href=\"http://fhir.ch/ig/ch-orf/StructureDefinition-ch-orf-encounter.html\">CH ORF Requested Encounter</a></p><p><b>text</b>: Voraussichtlich: Ambulant / Stationär / Notfall</p><p><b>type</b>: choice</p><p><b>required</b>: true</p></blockquote><blockquote><p><b>item</b></p><p><b>linkId</b>: requestedEncounter.desiredAccommodation</p><p><b>definition</b>: <a href=\"http://fhir.ch/ig/ch-orf/StructureDefinition-ch-orf-encounter.html\">CH ORF Requested Encounter</a></p><p><b>text</b>: Zimmerkategorie</p><p><b>type</b>: choice</p></blockquote></blockquote><blockquote><p><b>item</b></p><p><b>linkId</b>: coverage</p><p><b>definition</b>: <a href=\"StructureDefinition-ch-rad-order-servicerequest.html\">CH RAD-Order ServiceRequest</a></p><p><b>text</b>: Kostenträger</p><p><b>type</b>: group</p><blockquote><p><b>item</b></p><p><b>linkId</b>: coverage.beneficiary</p><p><b>definition</b>: <a href=\"http://fhir.ch/ig/ch-orf/StructureDefinition-ch-orf-coverage.html\">CH ORF Coverage</a></p><p><b>text</b>: Begünstigter (Patient)</p><p><b>type</b>: group</p></blockquote><blockquote><p><b>item</b></p><p><b>linkId</b>: coverage.kvg</p><p><b>definition</b>: <a href=\"http://fhir.ch/ig/ch-orf/StructureDefinition-ch-orf-coverage.html\">CH ORF Coverage</a></p><p><b>text</b>: Krankenkasse (nach KVG)</p><p><b>type</b>: group</p></blockquote><blockquote><p><b>item</b></p><p><b>linkId</b>: coverage.uvg</p><p><b>definition</b>: <a href=\"http://fhir.ch/ig/ch-orf/StructureDefinition-ch-orf-coverage.html\">CH ORF Coverage</a></p><p><b>text</b>: Unfallversicherung (nach UVG)</p><p><b>type</b>: group</p></blockquote><blockquote><p><b>item</b></p><p><b>linkId</b>: coverage.vvg</p><p><b>definition</b>: <a href=\"http://fhir.ch/ig/ch-orf/StructureDefinition-ch-orf-coverage.html\">CH ORF Coverage</a></p><p><b>text</b>: Zusatzversicherung (nach VVG)</p><p><b>type</b>: group</p></blockquote><blockquote><p><b>item</b></p><p><b>linkId</b>: coverage.iv</p><p><b>definition</b>: <a href=\"http://fhir.ch/ig/ch-orf/StructureDefinition-ch-orf-coverage.html\">CH ORF Coverage</a></p><p><b>text</b>: Invalidenversicherung (IV)</p><p><b>type</b>: group</p></blockquote><blockquote><p><b>item</b></p><p><b>linkId</b>: coverage.mv</p><p><b>definition</b>: <a href=\"http://fhir.ch/ig/ch-orf/StructureDefinition-ch-orf-coverage.html\">CH ORF Coverage</a></p><p><b>text</b>: Militärversicherung (MV)</p><p><b>type</b>: group</p></blockquote><blockquote><p><b>item</b></p><p><b>linkId</b>: coverage.self</p><p><b>definition</b>: <a href=\"http://fhir.ch/ig/ch-orf/StructureDefinition-ch-orf-coverage.html\">CH ORF Coverage</a></p><p><b>text</b>: Selbstzahler</p><p><b>type</b>: group</p></blockquote><blockquote><p><b>item</b></p><p><b>linkId</b>: coverage.other</p><p><b>definition</b>: <a href=\"http://fhir.ch/ig/ch-orf/StructureDefinition-ch-orf-coverage.html\">CH ORF Coverage</a></p><p><b>text</b>: Anderer Kostenträger</p><p><b>type</b>: group</p></blockquote></blockquote><blockquote><p><b>item</b></p><p><b>linkId</b>: sender</p><p><b>text</b>: Absender</p><p><b>type</b>: group</p><p><b>required</b>: true</p><blockquote><p><b>item</b></p><p><b>linkId</b>: sender.author</p><p><b>definition</b>: <a href=\"StructureDefinition-ch-rad-order-composition.html\">CH RAD-Order Composition</a></p><p><b>text</b>: Verantwortlicher</p><p><b>type</b>: group</p><p><b>required</b>: true</p></blockquote><blockquote><p><b>item</b></p><p><b>linkId</b>: sender.dataenterer</p><p><b>definition</b>: <a href=\"StructureDefinition-ch-rad-order-composition.html\">CH RAD-Order Composition</a></p><p><b>text</b>: Erfasser</p><p><b>type</b>: group</p></blockquote></blockquote><blockquote><p><b>item</b></p><p><b>linkId</b>: receiver</p><p><b>definition</b>: <a href=\"StructureDefinition-ch-rad-order-composition.html\">CH RAD-Order Composition</a></p><p><b>text</b>: Empfänger</p><p><b>type</b>: group</p><blockquote><p><b>item</b></p><p><b>linkId</b>: receiver.practitioner</p><p><b>definition</b>: <a href=\"http://fhir.ch/ig/ch-core/StructureDefinition-ch-core-practitionerrole.html\">CH Core Practitioner Role Profile</a></p><p><b>text</b>: Empfangende Person</p><p><b>type</b>: group</p></blockquote><blockquote><p><b>item</b></p><p><b>linkId</b>: receiver.organization</p><p><b>definition</b>: <a href=\"http://fhir.ch/ig/ch-core/StructureDefinition-ch-core-practitionerrole.html\">CH Core Practitioner Role Profile</a></p><p><b>text</b>: Empfangende Organisation</p><p><b>type</b>: group</p></blockquote></blockquote><blockquote><p><b>item</b></p><p><b>linkId</b>: receiverCopy</p><p><b>definition</b>: <a href=\"http://fhir.ch/ig/ch-orf/StructureDefinition-ch-orf-composition.html\">CH ORF Composition</a></p><p><b>text</b>: Kopieempfänger (Kopie dieses Auftrags und aller daraus resultierenden Resultate)</p><p><b>type</b>: group</p><blockquote><p><b>item</b></p><p><b>linkId</b>: receiverCopy.practitionerRole</p><p><b>definition</b>: <a href=\"http://fhir.ch/ig/ch-core/StructureDefinition-ch-core-practitionerrole.html\">CH Core Practitioner Role Profile</a></p><p><b>text</b>: Gesundheitsfachperson oder -organisation</p><p><b>type</b>: group</p><p><b>repeats</b>: true</p></blockquote><blockquote><p><b>item</b></p><p><b>linkId</b>: receiverCopy.patient</p><p><b>definition</b>: <a href=\"http://fhir.ch/ig/ch-core/StructureDefinition-ch-core-patient.html\">CH Core Patient Profile</a></p><p><b>text</b>: Patient selbst</p><p><b>type</b>: boolean</p></blockquote><blockquote><p><b>item</b></p><p><b>linkId</b>: receiverCopy.relatedPerson</p><p><b>definition</b>: <a href=\"http://hl7.org/fhir/R4/relatedperson.html\">RelatedPerson</a></p><p><b>text</b>: Andere Person</p><p><b>type</b>: group</p><p><b>repeats</b>: true</p></blockquote></blockquote><blockquote><p><b>item</b></p><p><b>linkId</b>: appointment</p><p><b>definition</b>: <a href=\"http://fhir.ch/ig/ch-orf/StructureDefinition-ch-orf-servicerequest.html\">CH ORF ServiceRequest</a></p><p><b>text</b>: Ort und Zeit der Durchführung der angeforderten Leistung</p><p><b>type</b>: group</p><p><b>repeats</b>: true</p><blockquote><p><b>item</b></p><p><b>linkId</b>: appointment.location</p><p><b>definition</b>: <a href=\"http://fhir.ch/ig/ch-orf/StructureDefinition-ch-orf-appointment.html\">CH ORF Appointment</a></p><p><b>text</b>: Ort der Durchführung</p><p><b>type</b>: group</p><p><b>required</b>: true</p></blockquote><blockquote><p><b>item</b></p><p><b>linkId</b>: appointment.requestedPeriod</p><p><b>definition</b>: <a href=\"http://fhir.ch/ig/ch-orf/StructureDefinition-ch-orf-appointment.html\">CH ORF Appointment</a></p><p><b>text</b>: Datum und Zeit, wann der Termin bevorzugt geplant werden soll</p><p><b>type</b>: group</p></blockquote><blockquote><p><b>item</b></p><p><b>linkId</b>: appointment.status</p><p><b>definition</b>: <a href=\"http://fhir.ch/ig/ch-orf/StructureDefinition-ch-orf-appointment.html\">CH ORF Appointment</a></p><p><b>text</b>: Status</p><p><b>type</b>: choice</p><p><b>required</b>: true</p></blockquote><blockquote><p><b>item</b></p><p><b>linkId</b>: appointment.patientInstruction</p><p><b>definition</b>: <a href=\"http://fhir.ch/ig/ch-orf/StructureDefinition-ch-orf-appointment.html\">CH ORF Appointment</a></p><p><b>text</b>: Patienteninformation für diesen Termin</p><p><b>type</b>: string</p></blockquote></blockquote><blockquote><p><b>item</b></p><p><b>linkId</b>: requestedService</p><p><b>text</b>: Angeforderte Leistung</p><p><b>type</b>: group</p><p><b>required</b>: true</p><h3>Items</h3><table class=\"grid\"><tr><td>-</td><td><b>LinkId</b></td><td><b>Definition</b></td><td><b>Text</b></td><td><b>Type</b></td><td><b>Required</b></td><td><b>AnswerValueSet</b></td></tr><tr><td>*</td><td>requestedService.service</td><td><a href=\"StructureDefinition-ch-rad-order-servicerequest.html\">CH RAD-Order ServiceRequest</a></td><td>Leistung</td><td>choice</td><td>true</td><td><a href=\"ValueSet-ch-rad-order-requested-service.html\">Requested Service</a></td></tr></table></blockquote><blockquote><p><b>item</b></p><p><b>linkId</b>: reason</p><p><b>text</b>: Klinische Fragestellung</p><p><b>type</b>: group</p><h3>Items</h3><table class=\"grid\"><tr><td>-</td><td><b>LinkId</b></td><td><b>Definition</b></td><td><b>Text</b></td><td><b>Type</b></td><td><b>Repeats</b></td></tr><tr><td>*</td><td>reason.question</td><td><a href=\"StructureDefinition-ch-rad-order-servicerequest.html\">CH RAD-Order ServiceRequest</a></td><td>Fragestellung</td><td>string</td><td>true</td></tr></table></blockquote><blockquote><p><b>item</b></p><p><b>linkId</b>: imagingService</p><p><b>text</b>: Bildgebendes Verfahren</p><p><b>type</b>: group</p><h3>Items</h3><table class=\"grid\"><tr><td>-</td><td><b>LinkId</b></td><td><b>Definition</b></td><td><b>Text</b></td><td><b>Type</b></td><td><b>AnswerValueSet</b></td></tr><tr><td>*</td><td>imagingService.type</td><td><a href=\"StructureDefinition-ch-rad-order-servicerequest.html\">CH RAD-Order ServiceRequest</a></td><td>Art</td><td>choice</td><td><a href=\"ValueSet-ch-rad-order-modality-type.html\">Modality Type</a></td></tr></table></blockquote><blockquote><p><b>item</b></p><p><b>linkId</b>: orderDetail</p><p><b>text</b>: Weitere Angaben zur Bildgebung</p><p><b>type</b>: group</p><blockquote><p><b>item</b></p><p><b>linkId</b>: orderDetail.imagingRegion</p><p><b>definition</b>: <a href=\"StructureDefinition-ch-rad-order-servicerequest.html\">CH RAD-Order ServiceRequest</a></p><p><b>text</b>: Region</p><p><b>type</b>: choice</p><p><b>repeats</b>: true</p><p><b>answerValueSet</b>: <a href=\"ValueSet-ch-rad-order-imaging-region.html\">Imaging Region</a></p></blockquote><blockquote><p><b>item</b></p><p><b>linkId</b>: orderDetail.imagingFocus</p><p><b>definition</b>: <a href=\"StructureDefinition-ch-rad-order-servicerequest.html\">CH RAD-Order ServiceRequest</a></p><p><b>text</b>: Fokus</p><p><b>type</b>: choice</p><p><b>repeats</b>: true</p><p><b>answerValueSet</b>: <a href=\"ValueSet-ch-rad-order-imaging-focus.html\">Imaging Focus</a></p></blockquote><blockquote><p><b>item</b></p><p><b>linkId</b>: orderDetail.laterality</p><p><b>definition</b>: <a href=\"StructureDefinition-ch-rad-order-servicerequest.html\">CH RAD-Order ServiceRequest</a></p><p><b>text</b>: Seitenangabe</p><p><b>type</b>: choice</p><p><b>answerValueSet</b>: <a href=\"ValueSet-ch-rad-order-laterality.html\">Laterality</a></p></blockquote><blockquote><p><b>item</b></p><p><b>linkId</b>: orderDetail.viewType</p><p><b>definition</b>: <a href=\"StructureDefinition-ch-rad-order-servicerequest.html\">CH RAD-Order ServiceRequest</a></p><p><b>text</b>: Ansicht</p><p><b>type</b>: choice</p><p><b>repeats</b>: true</p><p><b>answerValueSet</b>: <a href=\"ValueSet-ch-rad-order-view-type.html\">View Type</a></p></blockquote><blockquote><p><b>item</b></p><p><b>linkId</b>: orderDetail.maneuverType</p><p><b>definition</b>: <a href=\"StructureDefinition-ch-rad-order-servicerequest.html\">CH RAD-Order ServiceRequest</a></p><p><b>text</b>: Manöver</p><p><b>type</b>: choice</p><p><b>repeats</b>: true</p><p><b>answerValueSet</b>: <a href=\"ValueSet-ch-rad-order-maneuver-type.html\">Maneuver Type</a></p></blockquote><blockquote><p><b>item</b></p><p><b>linkId</b>: orderDetail.guidanceForAction</p><p><b>definition</b>: <a href=\"StructureDefinition-ch-rad-order-servicerequest.html\">CH RAD-Order ServiceRequest</a></p><p><b>text</b>: Handlungsanleitung</p><p><b>type</b>: choice</p><p><b>enableBehavior</b>: any</p><p><b>repeats</b>: true</p><p><b>answerValueSet</b>: <a href=\"ValueSet-ch-rad-order-guidance-for-action.html\">Guidance for Action</a></p></blockquote></blockquote><blockquote><p><b>item</b></p><p><b>linkId</b>: desiredRadiologist</p><p><b>definition</b>: <a href=\"StructureDefinition-ch-rad-order-servicerequest.html\">CH RAD-Order ServiceRequest</a></p><p><b>text</b>: Gewünschter Radiologe für die Befundung / für die Intervention</p><p><b>type</b>: group</p><h3>Items</h3><table class=\"grid\"><tr><td>-</td><td><b>LinkId</b></td><td><b>Definition</b></td><td><b>Text</b></td><td><b>Type</b></td></tr><tr><td>*</td><td>desiredRadiologist.familyName</td><td><a href=\"http://fhir.ch/ig/ch-core/StructureDefinition-ch-core-practitioner.html\">CH Core Practitioner Profile</a></td><td>Name</td><td>string</td></tr><tr><td>*</td><td>desiredRadiologist.givenName</td><td><a href=\"http://fhir.ch/ig/ch-core/StructureDefinition-ch-core-practitioner.html\">CH Core Practitioner Profile</a></td><td>Vorname</td><td>string</td></tr></table></blockquote><blockquote><p><b>item</b></p><p><b>linkId</b>: diagnosisList</p><p><b>text</b>: Diagnosen und Befunde</p><p><b>type</b>: group</p><h3>Items</h3><table class=\"grid\"><tr><td>-</td><td><b>LinkId</b></td><td><b>Definition</b></td><td><b>Text</b></td><td><b>Type</b></td><td><b>Repeats</b></td></tr><tr><td>*</td><td>diagnosisList.primaryDiagnosis</td><td><a href=\"StructureDefinition-ch-rad-order-servicerequest.html\">CH RAD-Order ServiceRequest</a></td><td>Hauptdiagnose</td><td>string</td><td>true</td></tr><tr><td>*</td><td>diagnosisList.secondaryDiagnosis</td><td><a href=\"StructureDefinition-ch-rad-order-servicerequest.html\">CH RAD-Order ServiceRequest</a></td><td>Nebendiagnose</td><td>string</td><td>true</td></tr><tr><td>*</td><td>diagnosisList.bodyHeight</td><td><a href=\"StructureDefinition-ch-rad-order-servicerequest.html\">CH RAD-Order ServiceRequest</a></td><td>Grösse (cm)</td><td>quantity</td><td>false</td></tr><tr><td>*</td><td>diagnosisList.bodyWeight</td><td><a href=\"StructureDefinition-ch-rad-order-servicerequest.html\">CH RAD-Order ServiceRequest</a></td><td>Gewicht (kg)</td><td>quantity</td><td>false</td></tr></table></blockquote><blockquote><p><b>item</b></p><p><b>linkId</b>: caveat</p><p><b>definition</b>: <a href=\"StructureDefinition-ch-rad-order-servicerequest.html\">CH RAD-Order ServiceRequest</a></p><p><b>text</b>: Caveats</p><p><b>type</b>: group</p><blockquote><p><b>item</b></p><p><b>linkId</b>: caveat.bloodCoagulation</p><p><b>definition</b>: <a href=\"StructureDefinition-ch-rad-order-caveat-condition.html\">CH RAD-Order Caveat Condition</a></p><p><b>text</b>: Beinträchtigte Blutgerinnung</p><p><b>type</b>: choice</p><p><b>required</b>: true</p><p><b>answerValueSet</b>: <a href=\"ValueSet-ch-rad-order-caveat-qualifier-value.html\">Qualifier Value</a></p></blockquote><blockquote><p><b>item</b></p><p><b>linkId</b>: caveat.renalInsufficiency</p><p><b>definition</b>: <a href=\"StructureDefinition-ch-rad-order-caveat-condition.html\">CH RAD-Order Caveat Condition</a></p><p><b>text</b>: Niereninsuffizienz</p><p><b>type</b>: choice</p><p><b>required</b>: true</p><p><b>answerValueSet</b>: <a href=\"ValueSet-ch-rad-order-caveat-qualifier-value.html\">Qualifier Value</a></p></blockquote><blockquote><p><b>item</b></p><p><b>linkId</b>: caveat.claustrophobia</p><p><b>definition</b>: <a href=\"StructureDefinition-ch-rad-order-caveat-condition.html\">CH RAD-Order Caveat Condition</a></p><p><b>text</b>: Klaustrophobie</p><p><b>type</b>: choice</p><p><b>required</b>: true</p><p><b>answerValueSet</b>: <a href=\"ValueSet-ch-rad-order-caveat-qualifier-value.html\">Qualifier Value</a></p></blockquote><blockquote><p><b>item</b></p><p><b>linkId</b>: caveat.bodyPiercing</p><p><b>definition</b>: <a href=\"StructureDefinition-ch-rad-order-caveat-condition.html\">CH RAD-Order Caveat Condition</a></p><p><b>text</b>: Körperpiercing</p><p><b>type</b>: choice</p><p><b>required</b>: true</p><p><b>answerValueSet</b>: <a href=\"ValueSet-ch-rad-order-caveat-qualifier-value.html\">Qualifier Value</a></p></blockquote><blockquote><p><b>item</b></p><p><b>linkId</b>: caveat.device</p><p><b>text</b>: Device (Herzschrittmacher, Herzklappenersatz, Insulinpumpe etc.)</p><p><b>type</b>: group</p><p><b>repeats</b>: true</p></blockquote><blockquote><p><b>item</b></p><p><b>linkId</b>: caveat.hyperthyroidism</p><p><b>definition</b>: <a href=\"StructureDefinition-ch-rad-order-caveat-condition.html\">CH RAD-Order Caveat Condition</a></p><p><b>text</b>: Hyperthyreose</p><p><b>type</b>: choice</p><p><b>required</b>: true</p><p><b>answerValueSet</b>: <a href=\"ValueSet-ch-rad-order-caveat-qualifier-value.html\">Qualifier Value</a></p></blockquote><blockquote><p><b>item</b></p><p><b>linkId</b>: caveat.diabetes</p><p><b>definition</b>: <a href=\"StructureDefinition-ch-rad-order-caveat-condition.html\">CH RAD-Order Caveat Condition</a></p><p><b>text</b>: Diabetes mellitus</p><p><b>type</b>: choice</p><p><b>required</b>: true</p><p><b>answerValueSet</b>: <a href=\"ValueSet-ch-rad-order-caveat-qualifier-value.html\">Qualifier Value</a></p></blockquote><blockquote><p><b>item</b></p><p><b>linkId</b>: caveat.gravida</p><p><b>definition</b>: <a href=\"StructureDefinition-ch-rad-order-caveat-condition.html\">CH RAD-Order Caveat Condition</a></p><p><b>text</b>: Schwangerschaft</p><p><b>type</b>: choice</p><p><b>required</b>: true</p><p><b>answerValueSet</b>: <a href=\"ValueSet-ch-rad-order-caveat-qualifier-value.html\">Qualifier Value</a></p></blockquote><blockquote><p><b>item</b></p><p><b>linkId</b>: caveat.contrastMediaAllergy</p><p><b>definition</b>: <a href=\"StructureDefinition-ch-rad-order-caveat-condition.html\">CH RAD-Order Caveat Condition</a></p><p><b>text</b>: Kontrastmittelallergie</p><p><b>type</b>: choice</p><p><b>required</b>: true</p><p><b>answerValueSet</b>: <a href=\"ValueSet-ch-rad-order-caveat-qualifier-value.html\">Qualifier Value</a></p></blockquote><blockquote><p><b>item</b></p><p><b>linkId</b>: caveat.drugPrescription</p><p><b>text</b>: Relevante Medikamente</p><p><b>type</b>: group</p><p><b>required</b>: true</p></blockquote></blockquote><blockquote><p><b>item</b></p><p><b>linkId</b>: previousResults</p><p><b>definition</b>: <a href=\"StructureDefinition-ch-rad-order-servicerequest.html\">CH RAD-Order ServiceRequest</a></p><p><b>text</b>: Vorherige Untersuchungsresultate</p><p><b>type</b>: group</p><blockquote><p><b>item</b></p><p><b>linkId</b>: previousResults.attachment</p><p><b>definition</b>: <a href=\"StructureDefinition-ch-rad-order-media.html\">CH RAD-Order Media</a></p><p><b>text</b>: Daten</p><p><b>type</b>: attachment</p><p><b>repeats</b>: true</p></blockquote><blockquote><p><b>item</b></p><p><b>linkId</b>: previousResults.imagingStudy</p><p><b>text</b>: Bilder (DICOM)</p><p><b>type</b>: group</p><p><b>repeats</b>: true</p></blockquote></blockquote><blockquote><p><b>item</b></p><p><b>linkId</b>: note</p><p><b>text</b>: Bemerkungen</p><p><b>type</b>: group</p><p><b>repeats</b>: true</p><h3>Items</h3><table class=\"grid\"><tr><td>-</td><td><b>LinkId</b></td><td><b>Definition</b></td><td><b>Text</b></td><td><b>Type</b></td><td><b>Required</b></td></tr><tr><td>*</td><td>note.text</td><td><a href=\"StructureDefinition-ch-rad-order-servicerequest.html\">CH RAD-Order ServiceRequest</a></td><td>Kommentar</td><td>string</td><td>true</td></tr></table></blockquote></div>"
        },
        "extension": [
          {
            "url": "http://hl7.org/fhir/uv/sdc/StructureDefinition/sdc-questionnaire-targetStructureMap",
            "valueCanonical": "http://fhir.ch/ig/ch-rad-order/StructureMap/RadOrderQrToBundle"
          },
          {
            "url": "http://hl7.org/fhir/uv/sdc/StructureDefinition/sdc-questionnaire-sourceStructureMap",
            "valueCanonical": "http://fhir.ch/ig/ch-orf/StructureMap/OrfPrepopBundleToQr"
          },
          {
            "extension": [
              {
                "url": "name",
                "valueId": "Bundle"
              },
              {
                "url": "type",
                "valueCode": "Bundle"
              },
              {
                "url": "description",
                "valueString": "The Bundle that is to be used to pre-populate the form"
              }
            ],
            "url": "http://hl7.org/fhir/uv/sdc/StructureDefinition/sdc-questionnaire-launchContext"
          }
        ],
        "url": "http://fhir.ch/ig/ch-rad-order/StructureDefinition/QuestionnaireRadiologyOrder",
        "name": "QuestionnaireRadiologyOrder",
        "title": "Questionnaire Radiology Order",
        "derivedFrom": [
          "http://fhir.ch/ig/ch-orf/Questionnaire/ch-orf-questionnaire"
        ],
        "status": "active",
        "subjectType": [
          "Patient"
        ],
        "date": "2021-02-24",
        "publisher": "HL7 Switzerland",
        "item": [
          {
            "linkId": "order",
            "definition": "http://fhir.ch/ig/ch-rad-order/StructureDefinition/ch-rad-order-document#Bundle",
            "text": "Auftrag",
            "type": "group",
            "required": true,
            "item": [
              {
                "linkId": "order.placerOrderIdentifier",
                "definition": "http://fhir.ch/ig/ch-rad-order/StructureDefinition/ch-rad-order-servicerequest#ServiceRequest.identifier:placerOrderIdentifier.value",
                "text": "Auftragsnummer des Auftraggebers",
                "type": "string",
                "required": true
              },
              {
                "extension": [
                  {
                    "url": "http://hl7.org/fhir/StructureDefinition/questionnaire-hidden",
                    "valueBoolean": true
                  }
                ],
                "linkId": "order.placerOrderIdentifierDomain",
                "definition": "http://fhir.ch/ig/ch-rad-order/StructureDefinition/ch-rad-order-servicerequest#ServiceRequest.identifier:placerOrderIdentifier.system",
                "text": "Identifier Domain der Auftragsnummer des Auftraggebers",
                "type": "string",
                "required": true
              },
              {
                "linkId": "order.fillerOrderIdentifier",
                "definition": "http://fhir.ch/ig/ch-rad-order/StructureDefinition/ch-rad-order-servicerequest#ServiceRequest.identifier:fillerOrderIdentifier.value",
                "text": "Auftragsnummer des Auftragsempfängers",
                "type": "string"
              },
              {
                "extension": [
                  {
                    "url": "http://hl7.org/fhir/StructureDefinition/questionnaire-hidden",
                    "valueBoolean": true
                  }
                ],
                "linkId": "order.fillerOrderIdentifierDomain",
                "definition": "http://fhir.ch/ig/ch-rad-order/StructureDefinition/ch-rad-order-servicerequest#ServiceRequest.identifier:fillerOrderIdentifier.system",
                "text": "Identifier Domain der Auftragsnummer des Auftragsempfängers",
                "type": "string"
              },
              {
                "extension": [
                  {
                    "url": "http://hl7.org/fhir/StructureDefinition/questionnaire-hidden",
                    "valueBoolean": true
                  }
                ],
                "linkId": "order.precedentDocumentIdentifier",
                "definition": "http://fhir.ch/ig/ch-rad-order/StructureDefinition/ch-rad-order-composition#Composition.extension:precedentDocument",
                "text": "Identifier des Vorgängerdokuments",
                "type": "string"
              },
              {
                "linkId": "order.notificationContactDocument",
                "definition": "http://fhir.ch/ig/ch-rad-order/StructureDefinition/ch-rad-order-composition#Composition.extension:urgentNoficationContactForThisDocument",
                "text": "Dringender Benachrichtigungskontakt für dieses Dokument",
                "type": "group",
                "item": [
                  {
                    "linkId": "order.notificationContactDocument.practitioner",
                    "definition": "http://fhir.ch/ig/ch-core/StructureDefinition/ch-core-practitionerrole#PractitionerRole.practitioner",
                    "text": "Zu benachrichtigende Person",
                    "type": "group",
                    "item": [
                      {
                        "linkId": "order.notificationContactDocument.practitioner.title",
                        "definition": "http://fhir.ch/ig/ch-core/StructureDefinition/ch-core-practitioner#Practitioner.name.prefix",
                        "text": "Titel",
                        "type": "string"
                      },
                      {
                        "linkId": "order.notificationContactDocument.practitioner.familyName",
                        "definition": "http://fhir.ch/ig/ch-core/StructureDefinition/ch-core-practitioner#Practitioner.name.family",
                        "text": "Name",
                        "type": "string"
                      },
                      {
                        "linkId": "order.notificationContactDocument.practitioner.givenName",
                        "definition": "http://fhir.ch/ig/ch-core/StructureDefinition/ch-core-practitioner#Practitioner.name.given",
                        "text": "Vorname",
                        "type": "string"
                      },
                      {
                        "linkId": "order.notificationContactDocument.practitioner.phone",
                        "definition": "http://fhir.ch/ig/ch-core/StructureDefinition/ch-core-practitioner#Practitioner.telecom.value",
                        "text": "Telefon",
                        "type": "string"
                      },
                      {
                        "linkId": "order.notificationContactDocument.practitioner.email",
                        "definition": "http://fhir.ch/ig/ch-core/StructureDefinition/ch-core-practitioner#Practitioner.telecom.value",
                        "text": "E-Mail",
                        "type": "string"
                      }
                    ]
                  }
                ]
              },
              {
                "linkId": "order.notificationContactDocumentResponse",
                "definition": "http://fhir.ch/ig/ch-rad-order/StructureDefinition/ch-rad-order-composition#Composition.extension:urgentNoficationContactForTheResponseToThisDocument",
                "text": "Dringender Benachrichtigungskontakt für die Antwort auf dieses Dokument",
                "type": "group",
                "item": [
                  {
                    "linkId": "order.notificationContactDocumentResponse.practitioner",
                    "definition": "http://fhir.ch/ig/ch-core/StructureDefinition/ch-core-practitionerrole#PractitionerRole.practitioner",
                    "text": "Zu benachrichtigende Person",
                    "type": "group",
                    "item": [
                      {
                        "linkId": "order.notificationContactDocumentResponse.practitioner.title",
                        "definition": "http://fhir.ch/ig/ch-core/StructureDefinition/ch-core-practitioner#Practitioner.name.prefix",
                        "text": "Titel",
                        "type": "string"
                      },
                      {
                        "linkId": "order.notificationContactDocumentResponse.practitioner.familyName",
                        "definition": "http://fhir.ch/ig/ch-core/StructureDefinition/ch-core-practitioner#Practitioner.name.family",
                        "text": "Name",
                        "type": "string"
                      },
                      {
                        "linkId": "order.notificationContactDocumentResponse.practitioner.givenName",
                        "definition": "http://fhir.ch/ig/ch-core/StructureDefinition/ch-core-practitioner#Practitioner.name.given",
                        "text": "Vorname",
                        "type": "string"
                      },
                      {
                        "linkId": "order.notificationContactDocumentResponse.practitioner.phone",
                        "definition": "http://fhir.ch/ig/ch-core/StructureDefinition/ch-core-practitioner#Practitioner.telecom.value",
                        "text": "Telefon",
                        "type": "string"
                      },
                      {
                        "linkId": "order.notificationContactDocumentResponse.practitioner.email",
                        "definition": "http://fhir.ch/ig/ch-core/StructureDefinition/ch-core-practitioner#Practitioner.telecom.value",
                        "text": "E-Mail",
                        "type": "string"
                      }
                    ]
                  }
                ]
              },
              {
                "linkId": "order.priority",
                "definition": "http://fhir.ch/ig/ch-rad-order/StructureDefinition/ch-rad-order-servicerequest#ServiceRequest.priority",
                "text": "Auftragspriorität",
                "type": "choice",
                "answerOption": [
                  {
                    "valueCoding": {
                      "system": "http://hl7.org/fhir/request-priority",
                      "code": "routine",
                      "display": "Die Anfrage hat normale Priorität."
                    },
                    "initialSelected": true
                  },
                  {
                    "valueCoding": {
                      "system": "http://hl7.org/fhir/request-priority",
                      "code": "urgent",
                      "display": "Die Anfrage sollte dringend bearbeitet werden - höhere Priorität als normal."
                    }
                  },
                  {
                    "valueCoding": {
                      "system": "http://hl7.org/fhir/request-priority",
                      "code": "asap",
                      "display": "Die Anfrage sollte so schnell wie möglich bearbeitet werden - höhere Priorität als dringend."
                    }
                  },
                  {
                    "valueCoding": {
                      "system": "http://hl7.org/fhir/request-priority",
                      "code": "stat",
                      "display": "Die Anfrage sollte sofort bearbeitet werden - höchstmögliche Priorität. Z.B. bei einem Notfall."
                    }
                  }
                ]
              }
            ]
          },
          {
            "linkId": "patient",
            "definition": "http://fhir.ch/ig/ch-rad-order/StructureDefinition/ch-rad-order-composition#Composition.subject",
            "text": "Patient",
            "type": "group",
            "required": true,
            "item": [
              {
                "linkId": "patient.familyName",
                "definition": "http://fhir.ch/ig/ch-core/StructureDefinition/ch-core-patient#Patient.name.family",
                "text": "Name",
                "type": "string"
              },
              {
                "linkId": "patient.maidenName",
                "definition": "http://fhir.ch/ig/ch-core/StructureDefinition/ch-core-patient#Patient.name.family",
                "text": "Ledigname",
                "type": "string"
              },
              {
                "linkId": "patient.givenName",
                "definition": "http://fhir.ch/ig/ch-core/StructureDefinition/ch-core-patient#Patient.name.given",
                "text": "Vorname",
                "type": "string"
              },
              {
                "linkId": "patient.localPid",
                "definition": "http://fhir.ch/ig/ch-core/StructureDefinition/ch-core-patient#Patient.identifier:LocalPid.value",
                "text": "Lokale Patienten-ID",
                "type": "string"
              },
              {
                "extension": [
                  {
                    "url": "http://hl7.org/fhir/StructureDefinition/questionnaire-hidden",
                    "valueBoolean": true
                  }
                ],
                "linkId": "patient.localPidDomain",
                "definition": "http://fhir.ch/ig/ch-core/StructureDefinition/ch-core-patient#Patient.identifier:LocalPid.system",
                "text": "Lokale Patienten-ID Domain",
                "type": "string"
              },
              {
                "linkId": "patient.birthDate",
                "definition": "http://fhir.ch/ig/ch-core/StructureDefinition/ch-core-patient#Patient.birthDate",
                "text": "Geburtsdatum",
                "type": "date"
              },
              {
                "linkId": "patient.gender",
                "definition": "http://fhir.ch/ig/ch-core/StructureDefinition/ch-core-patient#Patient.gender",
                "text": "Geschlecht",
                "type": "choice",
                "answerOption": [
                  {
                    "valueCoding": {
                      "system": "http://hl7.org/fhir/administrative-gender",
                      "code": "male",
                      "display": "Männlich"
                    },
                    "initialSelected": true
                  },
                  {
                    "valueCoding": {
                      "system": "http://hl7.org/fhir/administrative-gender",
                      "code": "female",
                      "display": "Weiblich"
                    }
                  },
                  {
                    "valueCoding": {
                      "system": "http://hl7.org/fhir/administrative-gender",
                      "code": "other",
                      "display": "Anderes"
                    }
                  }
                ]
              },
              {
                "linkId": "patient.maritalStatus",
                "definition": "http://fhir.ch/ig/ch-core/StructureDefinition/ch-core-patient#Patient.maritalStatus",
                "text": "Zivilstand",
                "type": "choice",
                "answerOption": [
                  {
                    "valueCoding": {
                      "system": "http://fhir.ch/ig/ch-core/CodeSystem/ech-11-maritalstatus",
                      "code": "1",
                      "display": "ledig"
                    }
                  },
                  {
                    "valueCoding": {
                      "system": "http://fhir.ch/ig/ch-core/CodeSystem/ech-11-maritalstatus",
                      "code": "2",
                      "display": "verheiratet"
                    }
                  },
                  {
                    "valueCoding": {
                      "system": "http://fhir.ch/ig/ch-core/CodeSystem/ech-11-maritalstatus",
                      "code": "3",
                      "display": "verwitwet"
                    }
                  },
                  {
                    "valueCoding": {
                      "system": "http://fhir.ch/ig/ch-core/CodeSystem/ech-11-maritalstatus",
                      "code": "4",
                      "display": "geschieden"
                    }
                  },
                  {
                    "valueCoding": {
                      "system": "http://fhir.ch/ig/ch-core/CodeSystem/ech-11-maritalstatus",
                      "code": "5",
                      "display": "unverheiratet"
                    }
                  },
                  {
                    "valueCoding": {
                      "system": "http://fhir.ch/ig/ch-core/CodeSystem/ech-11-maritalstatus",
                      "code": "6",
                      "display": "in eingetragener Partnerschaft"
                    }
                  },
                  {
                    "valueCoding": {
                      "system": "http://fhir.ch/ig/ch-core/CodeSystem/ech-11-maritalstatus",
                      "code": "7",
                      "display": "aufgelöste Partnerschaft"
                    }
                  },
                  {
                    "valueCoding": {
                      "system": "http://fhir.ch/ig/ch-core/CodeSystem/ech-11-maritalstatus",
                      "code": "9",
                      "display": "unbekannt"
                    }
                  }
                ]
              },
              {
                "linkId": "patient.phone",
                "definition": "http://fhir.ch/ig/ch-core/StructureDefinition/ch-core-patient#Patient.telecom.value",
                "text": "Telefon",
                "type": "string",
                "repeats": true
              },
              {
                "linkId": "patient.email",
                "definition": "http://fhir.ch/ig/ch-core/StructureDefinition/ch-core-patient#Patient.telecom.value",
                "text": "E-Mail",
                "type": "string"
              },
              {
                "linkId": "patient.streetAddressLine",
                "definition": "http://fhir.ch/ig/ch-core/StructureDefinition/ch-core-patient#Patient.address.line",
                "text": "Strasse, Hausnummer, Postfach etc.",
                "type": "string",
                "repeats": true
              },
              {
                "linkId": "patient.postalCode",
                "definition": "http://fhir.ch/ig/ch-core/StructureDefinition/ch-core-patient#Patient.address.postalCode",
                "text": "PLZ",
                "type": "string"
              },
              {
                "linkId": "patient.city",
                "definition": "http://fhir.ch/ig/ch-core/StructureDefinition/ch-core-patient#Patient.address.city",
                "text": "Ort",
                "type": "string"
              },
              {
                "linkId": "patient.country",
                "definition": "http://fhir.ch/ig/ch-core/StructureDefinition/ch-core-patient#Patient.address.country",
                "text": "Land",
                "type": "string"
              },
              {
                "linkId": "patient.languageOfCorrespondance",
                "definition": "http://fhir.ch/ig/ch-core/StructureDefinition/ch-core-patient#Patient.communication:languageOfCorrespondance",
                "text": "Korrespondenssprache",
                "type": "choice",
                "answerValueSet": "http://fhir.ch/ig/ch-epr-term/ValueSet/DocumentEntry.languageCode"
              }
            ]
          },
          {
            "linkId": "requestedEncounter",
            "definition": "http://fhir.ch/ig/ch-rad-order/StructureDefinition/ch-rad-order-servicerequest#ServiceRequest.extension:requestedEncounterDetails",
            "text": "Patientenaufnahme",
            "type": "group",
            "item": [
              {
                "linkId": "requestedEncounter.class",
                "definition": "http://fhir.ch/ig/ch-orf/StructureDefinition/ch-orf-encounter#Encounter.class",
                "text": "Voraussichtlich: Ambulant / Stationär / Notfall",
                "type": "choice",
                "required": true,
                "answerOption": [
                  {
                    "valueCoding": {
                      "system": "http://terminology.hl7.org/CodeSystem/v3-ActCode",
                      "code": "AMB",
                      "display": "Ambulant"
                    }
                  },
                  {
                    "valueCoding": {
                      "system": "http://terminology.hl7.org/CodeSystem/v3-ActCode",
                      "code": "IMP",
                      "display": "Stationär"
                    }
                  },
                  {
                    "valueCoding": {
                      "system": "http://terminology.hl7.org/CodeSystem/v3-ActCode",
                      "code": "EMER",
                      "display": "Notfall"
                    }
                  }
                ]
              },
              {
                "linkId": "requestedEncounter.desiredAccommodation",
                "definition": "http://fhir.ch/ig/ch-orf/StructureDefinition/ch-orf-encounter#Encounter.extension:desiredAccommodation",
                "text": "Zimmerkategorie",
                "type": "choice",
                "answerOption": [
                  {
                    "valueCoding": {
                      "system": "http://fhir.ch/ig/ch-core/CodeSystem/bfs-medstats-21-encountertype",
                      "code": "1",
                      "display": "allgemein"
                    }
                  },
                  {
                    "valueCoding": {
                      "system": "http://fhir.ch/ig/ch-core/CodeSystem/bfs-medstats-21-encountertype",
                      "code": "2",
                      "display": "halbprivat"
                    }
                  },
                  {
                    "valueCoding": {
                      "system": "http://fhir.ch/ig/ch-core/CodeSystem/bfs-medstats-21-encountertype",
                      "code": "3",
                      "display": "privat"
                    }
                  }
                ]
              }
            ]
          },
          {
            "linkId": "coverage",
            "definition": "http://fhir.ch/ig/ch-rad-order/StructureDefinition/ch-rad-order-servicerequest#ServiceRequest.insurance",
            "text": "Kostenträger",
            "type": "group",
            "item": [
              {
                "linkId": "coverage.beneficiary",
                "definition": "http://fhir.ch/ig/ch-orf/StructureDefinition/ch-orf-coverage#Coverage.beneficiary",
                "text": "Begünstigter (Patient)",
                "type": "group",
                "item": [
                  {
                    "linkId": "coverage.beneficiary.ahvn13",
                    "definition": "http://fhir.ch/ig/ch-core/StructureDefinition/ch-core-patient#Patient.identifier:AHVN13",
                    "text": "AHV-Nr. des Patienten",
                    "type": "string"
                  }
                ]
              },
              {
                "linkId": "coverage.kvg",
                "definition": "http://fhir.ch/ig/ch-orf/StructureDefinition/ch-orf-coverage#Coverage.type",
                "text": "Krankenkasse (nach KVG)",
                "type": "group",
                "item": [
                  {
                    "linkId": "coverage.kvg.name",
                    "definition": "http://fhir.ch/ig/ch-orf/StructureDefinition/ch-orf-coverage#Coverage.payor",
                    "text": "Name der Versicherung",
                    "type": "string"
                  },
                  {
                    "linkId": "coverage.kvg.insuranceCardNumber",
                    "definition": "http://fhir.ch/ig/ch-orf/StructureDefinition/ch-orf-coverage#Coverage.identifier",
                    "text": "Kennnummer der Versichertenkarte",
                    "type": "string"
                  }
                ]
              },
              {
                "linkId": "coverage.uvg",
                "definition": "http://fhir.ch/ig/ch-orf/StructureDefinition/ch-orf-coverage#Coverage.type",
                "text": "Unfallversicherung (nach UVG)",
                "type": "group",
                "item": [
                  {
                    "linkId": "coverage.uvg.name",
                    "definition": "http://fhir.ch/ig/ch-orf/StructureDefinition/ch-orf-coverage#Coverage.payor",
                    "text": "Name der Versicherung",
                    "type": "string"
                  },
                  {
                    "linkId": "coverage.uvg.claimNumber",
                    "definition": "http://fhir.ch/ig/ch-orf/StructureDefinition/ch-orf-coverage#Coverage.identifier",
                    "text": "Schadennummer",
                    "type": "string"
                  }
                ]
              },
              {
                "linkId": "coverage.vvg",
                "definition": "http://fhir.ch/ig/ch-orf/StructureDefinition/ch-orf-coverage#Coverage.type",
                "text": "Zusatzversicherung (nach VVG)",
                "type": "group",
                "item": [
                  {
                    "linkId": "coverage.vvg.name",
                    "definition": "http://fhir.ch/ig/ch-orf/StructureDefinition/ch-orf-coverage#Coverage.payor",
                    "text": "Name der Versicherung",
                    "type": "string"
                  },
                  {
                    "linkId": "coverage.vvg.insuranceCardNumber",
                    "definition": "http://fhir.ch/ig/ch-orf/StructureDefinition/ch-orf-coverage#Coverage.identifier",
                    "text": "Kennnummer der Versichertenkarte",
                    "type": "string"
                  }
                ]
              },
              {
                "linkId": "coverage.iv",
                "definition": "http://fhir.ch/ig/ch-orf/StructureDefinition/ch-orf-coverage#Coverage.type",
                "text": "Invalidenversicherung (IV)",
                "type": "group",
                "item": [
                  {
                    "linkId": "coverage.iv.verfuegungsnummer",
                    "definition": "http://fhir.ch/ig/ch-orf/StructureDefinition/ch-orf-coverage#Coverage.identifier",
                    "text": "IV-Verfügungsnummer",
                    "type": "string"
                  }
                ]
              },
              {
                "linkId": "coverage.mv",
                "definition": "http://fhir.ch/ig/ch-orf/StructureDefinition/ch-orf-coverage#Coverage.type",
                "text": "Militärversicherung (MV)",
                "type": "group",
                "item": [
                  {
                    "linkId": "coverage.mv.versichertennummer",
                    "definition": "http://fhir.ch/ig/ch-orf/StructureDefinition/ch-orf-coverage#Coverage.identifier",
                    "text": "MV-Versichertennummer",
                    "type": "string"
                  }
                ]
              },
              {
                "linkId": "coverage.self",
                "definition": "http://fhir.ch/ig/ch-orf/StructureDefinition/ch-orf-coverage#Coverage.type",
                "text": "Selbstzahler",
                "type": "group",
                "item": [
                  {
                    "linkId": "coverage.self.patient",
                    "definition": "http://fhir.ch/ig/ch-orf/StructureDefinition/ch-orf-coverage#Coverage.payor",
                    "text": "Patient selbst",
                    "type": "boolean"
                  },
                  {
                    "linkId": "coverage.self.patientRelatedPerson",
                    "definition": "http://fhir.ch/ig/ch-orf/StructureDefinition/ch-orf-coverage#Coverage.payor",
                    "text": "Andere Person",
                    "type": "boolean",
                    "enableWhen": [
                      {
                        "question": "coverage.self.patient",
                        "operator": "=",
                        "answerBoolean": false
                      }
                    ]
                  },
                  {
                    "linkId": "coverage.self.relatedPerson",
                    "definition": "http://fhir.ch/ig/ch-orf/StructureDefinition/ch-orf-coverage#Coverage.payor",
                    "text": "Andere Person",
                    "type": "group",
                    "enableWhen": [
                      {
                        "question": "coverage.self.patientRelatedPerson",
                        "operator": "=",
                        "answerBoolean": true
                      }
                    ],
                    "item": [
                      {
                        "linkId": "coverage.self.relatedPerson.familyName",
                        "definition": "http://hl7.org/fhir/StructureDefinition/RelatedPerson#RelatedPerson.name.family",
                        "text": "Name",
                        "type": "string"
                      },
                      {
                        "linkId": "coverage.self.relatedPerson.givenName",
                        "definition": "http://hl7.org/fhir/StructureDefinition/RelatedPerson#RelatedPerson.name.given",
                        "text": "Vorname",
                        "type": "string"
                      },
                      {
                        "linkId": "coverage.self.relatedPerson.phone",
                        "definition": "http://hl7.org/fhir/StructureDefinition/RelatedPerson#RelatedPerson.telecom.value",
                        "text": "Telefon",
                        "type": "string",
                        "repeats": true
                      },
                      {
                        "linkId": "coverage.self.relatedPerson.email",
                        "definition": "http://hl7.org/fhir/StructureDefinition/RelatedPerson#RelatedPerson.telecom.value",
                        "text": "E-Mail",
                        "type": "string"
                      },
                      {
                        "linkId": "coverage.self.relatedPerson.streetAddressLine",
                        "definition": "http://hl7.org/fhir/StructureDefinition/RelatedPerson#RelatedPerson.address.line",
                        "text": "Strasse, Hausnummer, Postfach etc.",
                        "type": "string",
                        "repeats": true
                      },
                      {
                        "linkId": "coverage.self.relatedPerson.postalCode",
                        "definition": "http://hl7.org/fhir/StructureDefinition/RelatedPerson#RelatedPerson.address.postalCode",
                        "text": "PLZ",
                        "type": "string"
                      },
                      {
                        "linkId": "coverage.self.relatedPerson.city",
                        "definition": "http://hl7.org/fhir/StructureDefinition/RelatedPerson#RelatedPerson.address.city",
                        "text": "Ort",
                        "type": "string"
                      },
                      {
                        "linkId": "coverage.self.relatedPerson.country",
                        "definition": "http://hl7.org/fhir/StructureDefinition/RelatedPerson#RelatedPerson.address.country",
                        "text": "Land",
                        "type": "string"
                      }
                    ]
                  }
                ]
              },
              {
                "linkId": "coverage.other",
                "definition": "http://fhir.ch/ig/ch-orf/StructureDefinition/ch-orf-coverage#Coverage.type",
                "text": "Anderer Kostenträger",
                "type": "group",
                "item": [
                  {
                    "linkId": "coverage.other.name",
                    "definition": "http://fhir.ch/ig/ch-orf/StructureDefinition/ch-orf-coverage#Coverage.payor",
                    "text": "Name des Kostenträgers",
                    "type": "string"
                  },
                  {
                    "linkId": "coverage.other.id",
                    "definition": "http://fhir.ch/ig/ch-orf/StructureDefinition/ch-orf-coverage#Coverage.identifier",
                    "text": "Beliebige ID",
                    "type": "string"
                  },
                  {
                    "linkId": "coverage.other.id.note",
                    "definition": "http://fhir.ch/ig/ch-orf/StructureDefinition/ch-orf-coverage#Coverage.identifier.type.text",
                    "text": "Bemerkung zur ID",
                    "type": "string"
                  }
                ]
              }
            ]
          },
          {
            "linkId": "sender",
            "text": "Absender",
            "type": "group",
            "required": true,
            "item": [
              {
                "linkId": "sender.author",
                "definition": "http://fhir.ch/ig/ch-rad-order/StructureDefinition/ch-rad-order-composition#Composition.author",
                "text": "Verantwortlicher",
                "type": "group",
                "required": true,
                "item": [
                  {
                    "linkId": "sender.author.practitioner",
                    "definition": "http://fhir.ch/ig/ch-core/StructureDefinition/ch-core-practitionerrole#PractitionerRole.practitioner",
                    "text": "Verantwortliche Person",
                    "type": "group",
                    "required": true,
                    "item": [
                      {
                        "linkId": "sender.author.practitioner.title",
                        "definition": "http://fhir.ch/ig/ch-core/StructureDefinition/ch-core-practitioner#Practitioner.name.prefix",
                        "text": "Titel",
                        "type": "string"
                      },
                      {
                        "linkId": "sender.author.practitioner.familyName",
                        "definition": "http://fhir.ch/ig/ch-core/StructureDefinition/ch-core-practitioner#Practitioner.name.family",
                        "text": "Name",
                        "type": "string",
                        "required": true
                      },
                      {
                        "linkId": "sender.author.practitioner.givenName",
                        "definition": "http://fhir.ch/ig/ch-core/StructureDefinition/ch-core-practitioner#Practitioner.name.given",
                        "text": "Vorname",
                        "type": "string",
                        "required": true
                      },
                      {
                        "linkId": "sender.author.practitioner.gln",
                        "definition": "http://fhir.ch/ig/ch-core/StructureDefinition/ch-core-practitioner#Practitioner.identifier:GLN.value",
                        "text": "GLN",
                        "type": "string"
                      },
                      {
                        "linkId": "sender.author.practitioner.zsr",
                        "definition": "http://fhir.ch/ig/ch-core/StructureDefinition/ch-core-practitioner#Practitioner.identifier:ZSR.value",
                        "text": "ZSR",
                        "type": "string"
                      },
                      {
                        "linkId": "sender.author.practitioner.phone",
                        "definition": "http://fhir.ch/ig/ch-core/StructureDefinition/ch-core-practitioner#Practitioner.telecom.value",
                        "text": "Telefon",
                        "type": "string"
                      },
                      {
                        "linkId": "sender.author.practitioner.email",
                        "definition": "http://fhir.ch/ig/ch-core/StructureDefinition/ch-core-practitioner#Practitioner.telecom.value",
                        "text": "E-Mail",
                        "type": "string"
                      }
                    ]
                  },
                  {
                    "linkId": "sender.author.organization",
                    "definition": "http://fhir.ch/ig/ch-core/StructureDefinition/ch-core-practitionerrole#PractitionerRole.organization",
                    "text": "Verantwortliche Organisation",
                    "type": "group",
                    "required": true,
                    "item": [
                      {
                        "linkId": "sender.author.organization.name",
                        "definition": "http://fhir.ch/ig/ch-core/StructureDefinition/ch-core-organization#Organization.name",
                        "text": "Name der Organisation",
                        "type": "string",
                        "required": true
                      },
                      {
                        "linkId": "sender.author.organization.streetAddressLine",
                        "definition": "http://fhir.ch/ig/ch-core/StructureDefinition/ch-core-organization#Organization.address.line",
                        "text": "Strasse, Hausnummer, Postfach etc.",
                        "type": "string",
                        "repeats": true
                      },
                      {
                        "linkId": "sender.author.organization.postalCode",
                        "definition": "http://fhir.ch/ig/ch-core/StructureDefinition/ch-core-organization#Organization.address.postalCode",
                        "text": "PLZ",
                        "type": "string"
                      },
                      {
                        "linkId": "sender.author.organization.city",
                        "definition": "http://fhir.ch/ig/ch-core/StructureDefinition/ch-core-organization#Organization.address.city",
                        "text": "Ort",
                        "type": "string"
                      },
                      {
                        "linkId": "sender.author.organization.country",
                        "definition": "http://fhir.ch/ig/ch-core/StructureDefinition/ch-core-organization#Organization.address.country",
                        "text": "Land",
                        "type": "string"
                      }
                    ]
                  }
                ]
              },
              {
                "linkId": "sender.dataenterer",
                "definition": "http://fhir.ch/ig/ch-rad-order/StructureDefinition/ch-rad-order-composition#Composition.extension:dataEnterer",
                "text": "Erfasser",
                "type": "group",
                "item": [
                  {
                    "linkId": "sender.dataenterer.practitioner",
                    "definition": "http://fhir.ch/ig/ch-core/StructureDefinition/ch-core-practitionerrole#PractitionerRole.practitioner",
                    "text": "Erfassende Person",
                    "type": "group",
                    "item": [
                      {
                        "linkId": "sender.dataenterer.practitioner.familyName",
                        "definition": "http://fhir.ch/ig/ch-core/StructureDefinition/ch-core-practitioner#Practitioner.name.family",
                        "text": "Name",
                        "type": "string"
                      },
                      {
                        "linkId": "sender.dataenterer.practitioner.givenName",
                        "definition": "http://fhir.ch/ig/ch-core/StructureDefinition/ch-core-practitioner#Practitioner.name.given",
                        "text": "Vorname",
                        "type": "string"
                      },
                      {
                        "linkId": "sender.dataenterer.practitioner.phone",
                        "definition": "http://fhir.ch/ig/ch-core/StructureDefinition/ch-core-practitioner#Practitioner.telecom.value",
                        "text": "Telefon",
                        "type": "string"
                      },
                      {
                        "linkId": "sender.dataenterer.practitioner.email",
                        "definition": "http://fhir.ch/ig/ch-core/StructureDefinition/ch-core-practitioner#Practitioner.telecom.value",
                        "text": "E-Mail",
                        "type": "string"
                      }
                    ]
                  }
                ]
              }
            ]
          },
          {
            "linkId": "receiver",
            "definition": "http://fhir.ch/ig/ch-rad-order/StructureDefinition/ch-rad-order-composition#Composition.extension:receiver",
            "text": "Empfänger",
            "type": "group",
            "item": [
              {
                "linkId": "receiver.practitioner",
                "definition": "http://fhir.ch/ig/ch-core/StructureDefinition/ch-core-practitionerrole#PractitionerRole.practitioner",
                "text": "Empfangende Person",
                "type": "group",
                "item": [
                  {
                    "linkId": "receiver.practitioner.title",
                    "definition": "http://fhir.ch/ig/ch-core/StructureDefinition/ch-core-practitioner#Practitioner.name.prefix",
                    "text": "Titel",
                    "type": "string"
                  },
                  {
                    "linkId": "receiver.practitioner.familyName",
                    "definition": "http://fhir.ch/ig/ch-core/StructureDefinition/ch-core-practitioner#Practitioner.name.family",
                    "text": "Name",
                    "type": "string"
                  },
                  {
                    "linkId": "receiver.practitioner.givenName",
                    "definition": "http://fhir.ch/ig/ch-core/StructureDefinition/ch-core-practitioner#Practitioner.name.given",
                    "text": "Vorname",
                    "type": "string"
                  },
                  {
                    "linkId": "receiver.practitioner.gln",
                    "definition": "http://fhir.ch/ig/ch-core/StructureDefinition/ch-core-practitioner#Practitioner.identifier:GLN.value",
                    "text": "GLN",
                    "type": "string"
                  },
                  {
                    "linkId": "receiver.practitioner.zsr",
                    "definition": "http://fhir.ch/ig/ch-core/StructureDefinition/ch-core-practitioner#Practitioner.identifier:ZSR.value",
                    "text": "ZSR",
                    "type": "string"
                  },
                  {
                    "linkId": "receiver.practitioner.phone",
                    "definition": "http://fhir.ch/ig/ch-core/StructureDefinition/ch-core-practitioner#Practitioner.telecom.value",
                    "text": "Telefon",
                    "type": "string"
                  },
                  {
                    "linkId": "receiver.practitioner.email",
                    "definition": "http://fhir.ch/ig/ch-core/StructureDefinition/ch-core-practitioner#Practitioner.telecom.value",
                    "text": "E-Mail",
                    "type": "string"
                  }
                ]
              },
              {
                "linkId": "receiver.organization",
                "definition": "http://fhir.ch/ig/ch-core/StructureDefinition/ch-core-practitionerrole#PractitionerRole.organization",
                "text": "Empfangende Organisation",
                "type": "group",
                "item": [
                  {
                    "linkId": "receiver.organization.name",
                    "definition": "http://fhir.ch/ig/ch-core/StructureDefinition/ch-core-organization#Organization.name",
                    "text": "Name der Organisation",
                    "type": "string"
                  },
                  {
                    "linkId": "receiver.organization.gln",
                    "definition": "http://fhir.ch/ig/ch-core/StructureDefinition-ch-core-organization-definitions.html#Organization.identifier:GLN",
                    "text": "GLN",
                    "type": "string"
                  },
                  {
                    "linkId": "receiver.organization.streetAddressLine",
                    "definition": "http://fhir.ch/ig/ch-core/StructureDefinition/ch-core-organization#Organization.address.line",
                    "text": "Strasse, Hausnummer, Postfach etc.",
                    "type": "string",
                    "repeats": true
                  },
                  {
                    "linkId": "receiver.organization.postalCode",
                    "definition": "http://fhir.ch/ig/ch-core/StructureDefinition/ch-core-organization#Organization.address.postalCode",
                    "text": "PLZ",
                    "type": "string"
                  },
                  {
                    "linkId": "receiver.organization.city",
                    "definition": "http://fhir.ch/ig/ch-core/StructureDefinition/ch-core-organization#Organization.address.city",
                    "text": "Ort",
                    "type": "string"
                  },
                  {
                    "linkId": "receiver.organization.country",
                    "definition": "http://fhir.ch/ig/ch-core/StructureDefinition/ch-core-organization#Organization.address.country",
                    "text": "Land",
                    "type": "string"
                  }
                ]
              }
            ]
          },
          {
            "linkId": "receiverCopy",
            "definition": "http://fhir.ch/ig/ch-orf/StructureDefinition/ch-orf-composition#Composition.extension:copyReceiver",
            "text": "Kopieempfänger (Kopie dieses Auftrags und aller daraus resultierenden Resultate)",
            "type": "group",
            "item": [
              {
                "linkId": "receiverCopy.practitionerRole",
                "definition": "http://fhir.ch/ig/ch-core/StructureDefinition/ch-core-practitionerrole#PractitionerRole",
                "text": "Gesundheitsfachperson oder -organisation",
                "type": "group",
                "repeats": true,
                "item": [
                  {
                    "linkId": "receiverCopy.practitionerRole.practitioner",
                    "definition": "http://fhir.ch/ig/ch-core/StructureDefinition/ch-core-practitionerrole#PractitionerRole.practitioner",
                    "text": "Gesundheitsfachperson",
                    "type": "group",
                    "item": [
                      {
                        "linkId": "receiverCopy.practitionerRole.practitioner.title",
                        "definition": "http://fhir.ch/ig/ch-core/StructureDefinition/ch-core-humanname#HumanName.prefix",
                        "text": "Titel",
                        "type": "string"
                      },
                      {
                        "linkId": "receiverCopy.practitionerRole.practitioner.familyName",
                        "definition": "http://fhir.ch/ig/ch-core/StructureDefinition/ch-core-humanname#HumanName.family",
                        "text": "Name",
                        "type": "string"
                      },
                      {
                        "linkId": "receiverCopy.practitionerRole.practitioner.givenName",
                        "definition": "http://fhir.ch/ig/ch-core/StructureDefinition/ch-core-humanname#HumanName.given",
                        "text": "Vorname",
                        "type": "string"
                      },
                      {
                        "linkId": "receiverCopy.practitionerRole.practitioner.phone",
                        "definition": "http://hl7.org/fhir/StructureDefinition/ContactPoint#ContactPoint.value",
                        "text": "Telefon",
                        "type": "string"
                      },
                      {
                        "linkId": "receiverCopy.practitionerRole.practitioner.email",
                        "definition": "http://hl7.org/fhir/StructureDefinition/ContactPoint#ContactPoint.value",
                        "text": "E-Mail",
                        "type": "string"
                      }
                    ]
                  },
                  {
                    "linkId": "receiverCopy.practitionerRole.organization",
                    "definition": "http://fhir.ch/ig/ch-core/StructureDefinition/ch-core-practitionerrole#PractitionerRole.organization",
                    "text": "Gesundheitsorganisatiton",
                    "type": "group",
                    "item": [
                      {
                        "linkId": "receiverCopy.practitionerRole.organization.name",
                        "definition": "http://fhir.ch/ig/ch-core/StructureDefinition/ch-core-organization#Organization.name",
                        "text": "Name der Organisation",
                        "type": "string"
                      },
                      {
                        "linkId": "receiverCopy.practitionerRole.organization.streetAddressLine",
                        "definition": "http://fhir.ch/ig/ch-core/StructureDefinition/ch-core-address#Address.line",
                        "text": "Strasse, Hausnummer, Postfach etc.",
                        "type": "string",
                        "repeats": true
                      },
                      {
                        "linkId": "receiverCopy.practitionerRole.organization.postalCode",
                        "definition": "http://fhir.ch/ig/ch-core/StructureDefinition/ch-core-address#Address.postalCode",
                        "text": "PLZ",
                        "type": "string"
                      },
                      {
                        "linkId": "receiverCopy.practitionerRole.organization.city",
                        "definition": "http://fhir.ch/ig/ch-core/StructureDefinition/ch-core-address#Address.city",
                        "text": "Ort",
                        "type": "string"
                      },
                      {
                        "linkId": "receiverCopy.practitionerRole.organization.country",
                        "definition": "http://fhir.ch/ig/ch-core/StructureDefinition/ch-core-address#Address.country",
                        "text": "Land",
                        "type": "string"
                      }
                    ]
                  }
                ]
              },
              {
                "linkId": "receiverCopy.patient",
                "definition": "http://fhir.ch/ig/ch-core/StructureDefinition/ch-core-patient#Patient",
                "text": "Patient selbst",
                "type": "boolean"
              },
              {
                "linkId": "receiverCopy.relatedPerson",
                "definition": "http://hl7.org/fhir/StructureDefinition/RelatedPerson#RelatedPerson",
                "text": "Andere Person",
                "type": "group",
                "repeats": true,
                "item": [
                  {
                    "linkId": "receiverCopy.relatedPerson.familyName",
                    "definition": "http://hl7.org/fhir/StructureDefinition/RelatedPerson#RelatedPerson.name.family",
                    "text": "Name",
                    "type": "string"
                  },
                  {
                    "linkId": "receiverCopy.relatedPerson.givenName",
                    "definition": "http://hl7.org/fhir/StructureDefinition/RelatedPerson#RelatedPerson.name.given",
                    "text": "Vorame",
                    "type": "string"
                  },
                  {
                    "linkId": "receiverCopy.relatedPerson.phone",
                    "definition": "http://hl7.org/fhir/StructureDefinition/RelatedPerson#RelatedPerson.telecom.value",
                    "text": "Telefon",
                    "type": "string",
                    "repeats": true
                  },
                  {
                    "linkId": "receiverCopy.relatedPerson.email",
                    "definition": "http://hl7.org/fhir/StructureDefinition/RelatedPerson#RelatedPerson.telecom.value",
                    "text": "E-Mail",
                    "type": "string"
                  },
                  {
                    "linkId": "receiverCopy.relatedPerson.streetAddressLine",
                    "definition": "http://hl7.org/fhir/StructureDefinition/RelatedPerson#RelatedPerson.address.line",
                    "text": "Strasse, Hausnummer, Postfach etc.",
                    "type": "string",
                    "repeats": true
                  },
                  {
                    "linkId": "receiverCopy.relatedPerson.postalCode",
                    "definition": "http://hl7.org/fhir/StructureDefinition/RelatedPerson#RelatedPerson.address.postalCode",
                    "text": "PLZ",
                    "type": "string"
                  },
                  {
                    "linkId": "receiverCopy.relatedPerson.city",
                    "definition": "http://hl7.org/fhir/StructureDefinition/RelatedPerson#RelatedPerson.address.city",
                    "text": "Ort",
                    "type": "string"
                  },
                  {
                    "linkId": "receiverCopy.relatedPerson.country",
                    "definition": "http://hl7.org/fhir/StructureDefinition/RelatedPerson#RelatedPerson.address.country",
                    "text": "Land",
                    "type": "string"
                  }
                ]
              }
            ]
          },
          {
            "linkId": "appointment",
            "definition": "http://fhir.ch/ig/ch-orf/StructureDefinition/ch-orf-servicerequest#ServiceRequest.extension:locationAndTime",
            "text": "Ort und Zeit der Durchführung der angeforderten Leistung",
            "type": "group",
            "repeats": true,
            "item": [
              {
                "linkId": "appointment.location",
                "definition": "http://fhir.ch/ig/ch-orf/StructureDefinition/ch-orf-appointment#Appointment.participant.actor",
                "text": "Ort der Durchführung",
                "type": "group",
                "required": true,
                "item": [
                  {
                    "linkId": "appointment.location.name",
                    "definition": "http://fhir.ch/ig/ch-orf/StructureDefinition/ch-orf-location#Location.name",
                    "text": "Name",
                    "type": "string",
                    "required": true
                  },
                  {
                    "linkId": "appointment.location.phone",
                    "definition": "http://fhir.ch/ig/ch-orf/StructureDefinition/ch-orf-location#Location.telecom.value",
                    "text": "Telefon",
                    "type": "string"
                  },
                  {
                    "linkId": "appointment.location.email",
                    "definition": "http://fhir.ch/ig/ch-orf/StructureDefinition/ch-orf-location#Location.telecom.value",
                    "text": "E-Mail",
                    "type": "string"
                  },
                  {
                    "linkId": "appointment.location.streetAddressLine",
                    "definition": "http://fhir.ch/ig/ch-orf/StructureDefinition/ch-orf-location#Location.address.line",
                    "text": "Strasse, Hausnummer, Postfach etc.",
                    "type": "string",
                    "repeats": true
                  },
                  {
                    "linkId": "appointment.location.postalCode",
                    "definition": "http://fhir.ch/ig/ch-orf/StructureDefinition/ch-orf-location#Location.address.postalCode",
                    "text": "PLZ",
                    "type": "string"
                  },
                  {
                    "linkId": "appointment.location.city",
                    "definition": "http://fhir.ch/ig/ch-orf/StructureDefinition/ch-orf-location#Location.address.city",
                    "text": "Ort",
                    "type": "string"
                  },
                  {
                    "linkId": "appointment.location.country",
                    "definition": "http://fhir.ch/ig/ch-orf/StructureDefinition/ch-orf-location#Location.address.country",
                    "text": "Land",
                    "type": "string"
                  }
                ]
              },
              {
                "linkId": "appointment.requestedPeriod",
                "definition": "http://fhir.ch/ig/ch-orf/StructureDefinition/ch-orf-appointment#Appointment.requestedPeriod",
                "text": "Datum und Zeit, wann der Termin bevorzugt geplant werden soll",
                "type": "group",
                "item": [
                  {
                    "linkId": "appointment.requestedPeriod.start",
                    "definition": "http://fhir.ch/ig/ch-orf/StructureDefinition/ch-orf-appointment#Appointment.requestedPeriod.start",
                    "text": "Von",
                    "type": "dateTime"
                  },
                  {
                    "linkId": "appointment.requestedPeriod.end",
                    "definition": "http://fhir.ch/ig/ch-orf/StructureDefinition/ch-orf-appointment#Appointment.requestedPeriod.end",
                    "text": "Bis",
                    "type": "dateTime"
                  }
                ]
              },
              {
                "linkId": "appointment.status",
                "definition": "http://fhir.ch/ig/ch-orf/StructureDefinition/ch-orf-appointment#Appointment.status",
                "text": "Status",
                "type": "choice",
                "required": true,
                "answerOption": [
                  {
                    "valueCoding": {
                      "system": "http://hl7.org/fhir/appointmentstatus",
                      "code": "proposed",
                      "display": "Wunsch des Patienten (vorgeschlagen)"
                    },
                    "initialSelected": true
                  },
                  {
                    "valueCoding": {
                      "system": "http://hl7.org/fhir/appointmentstatus",
                      "code": "pending",
                      "display": "Vom Patienten bestätigt, aber vom Leistungserbringer noch nicht (ausstehend)"
                    }
                  },
                  {
                    "valueCoding": {
                      "system": "http://hl7.org/fhir/appointmentstatus",
                      "code": "booked",
                      "display": "Vom Patienten und Leistungserbringer bestätigt (gebucht)"
                    }
                  }
                ]
              },
              {
                "linkId": "appointment.patientInstruction",
                "definition": "http://fhir.ch/ig/ch-orf/StructureDefinition/ch-orf-appointment#Appointment.patientInstruction",
                "text": "Patienteninformation für diesen Termin",
                "type": "string"
              }
            ]
          },
          {
            "linkId": "requestedService",
            "text": "Angeforderte Leistung",
            "type": "group",
            "required": true,
            "item": [
              {
                "linkId": "requestedService.service",
                "definition": "http://fhir.ch/ig/ch-rad-order/StructureDefinition/ch-rad-order-servicerequest#ServiceRequest.category.coding",
                "text": "Leistung",
                "type": "choice",
                "required": true,
                "answerValueSet": "http://fhir.ch/ig/ch-rad-order/ValueSet/ch-rad-order-requested-service"
              }
            ]
          },
          {
            "linkId": "reason",
            "text": "Klinische Fragestellung",
            "type": "group",
            "item": [
              {
                "linkId": "reason.question",
                "definition": "http://fhir.ch/ig/ch-rad-order/StructureDefinition/ch-rad-order-servicerequest#ServiceRequest.reasonCode.text",
                "text": "Fragestellung",
                "type": "string",
                "repeats": true
              }
            ]
          },
          {
            "linkId": "imagingService",
            "text": "Bildgebendes Verfahren",
            "type": "group",
            "item": [
              {
                "linkId": "imagingService.type",
                "definition": "http://fhir.ch/ig/ch-rad-order/StructureDefinition/ch-rad-order-servicerequest#ServiceRequest.code.coding:RdlxModType",
                "text": "Art",
                "type": "choice",
                "answerValueSet": "http://fhir.ch/ig/ch-rad-order/ValueSet/ch-rad-order-modality-type"
              }
            ]
          },
          {
            "linkId": "orderDetail",
            "text": "Weitere Angaben zur Bildgebung",
            "type": "group",
            "item": [
              {
                "linkId": "orderDetail.imagingRegion",
                "definition": "http://fhir.ch/ig/ch-rad-order/StructureDefinition/ch-rad-order-servicerequest#ServiceRequest.orderDetail:imagingRegion",
                "text": "Region",
                "type": "choice",
                "repeats": true,
                "answerValueSet": "http://fhir.ch/ig/ch-rad-order/ValueSet/ch-rad-order-imaging-region"
              },
              {
                "linkId": "orderDetail.imagingFocus",
                "definition": "http://fhir.ch/ig/ch-rad-order/StructureDefinition/ch-rad-order-servicerequest#ServiceRequest.bodySite",
                "text": "Fokus",
                "type": "choice",
                "repeats": true,
                "answerValueSet": "http://fhir.ch/ig/ch-rad-order/ValueSet/ch-rad-order-imaging-focus"
              },
              {
                "linkId": "orderDetail.laterality",
                "definition": "http://fhir.ch/ig/ch-rad-order/StructureDefinition/ch-rad-order-servicerequest#ServiceRequest.orderDetail:laterality",
                "text": "Seitenangabe",
                "type": "choice",
                "answerValueSet": "http://fhir.ch/ig/ch-rad-order/ValueSet/ch-rad-order-laterality"
              },
              {
                "linkId": "orderDetail.viewType",
                "definition": "http://fhir.ch/ig/ch-rad-order/StructureDefinition/ch-rad-order-servicerequest#ServiceRequest.orderDetail:viewType",
                "text": "Ansicht",
                "type": "choice",
                "repeats": true,
                "answerValueSet": "http://fhir.ch/ig/ch-rad-order/ValueSet/ch-rad-order-view-type"
              },
              {
                "linkId": "orderDetail.maneuverType",
                "definition": "http://fhir.ch/ig/ch-rad-order/StructureDefinition/ch-rad-order-servicerequest#ServiceRequest.orderDetail:maneuverType",
                "text": "Manöver",
                "type": "choice",
                "repeats": true,
                "answerValueSet": "http://fhir.ch/ig/ch-rad-order/ValueSet/ch-rad-order-maneuver-type"
              },
              {
                "linkId": "orderDetail.guidanceForAction",
                "definition": "http://fhir.ch/ig/ch-rad-order/StructureDefinition/ch-rad-order-servicerequest#ServiceRequest.orderDetail:guidanceForAction",
                "text": "Handlungsanleitung",
                "type": "choice",
                "enableWhen": [
                  {
                    "question": "requestedService.service",
                    "operator": "=",
                    "answerCoding": {
                      "system": "http://fhir.ch/ig/ch-rad-order/CodeSystem/ch-rad-order-requested-service",
                      "code": "RadIntervention"
                    }
                  },
                  {
                    "question": "requestedService.service",
                    "operator": "=",
                    "answerCoding": {
                      "system": "http://fhir.ch/ig/ch-rad-order/CodeSystem/ch-rad-order-requested-service",
                      "code": "ImagingRequestWithIntervention"
                    }
                  }
                ],
                "enableBehavior": "any",
                "repeats": true,
                "answerValueSet": "http://fhir.ch/ig/ch-rad-order/ValueSet/ch-rad-order-guidance-for-action"
              }
            ]
          },
          {
            "linkId": "desiredRadiologist",
            "definition": "http://fhir.ch/ig/ch-rad-order/StructureDefinition/ch-rad-order-servicerequest#ServiceRequest.performer",
            "text": "Gewünschter Radiologe für die Befundung / für die Intervention",
            "type": "group",
            "item": [
              {
                "linkId": "desiredRadiologist.familyName",
                "definition": "http://fhir.ch/ig/ch-core/StructureDefinition/ch-core-practitioner#Practitioner.name.family",
                "text": "Name",
                "type": "string"
              },
              {
                "linkId": "desiredRadiologist.givenName",
                "definition": "http://fhir.ch/ig/ch-core/StructureDefinition/ch-core-practitioner#Practitioner.name.given",
                "text": "Vorname",
                "type": "string"
              }
            ]
          },
          {
            "linkId": "diagnosisList",
            "text": "Diagnosen und Befunde",
            "type": "group",
            "item": [
              {
                "linkId": "diagnosisList.primaryDiagnosis",
                "definition": "http://fhir.ch/ig/ch-rad-order/StructureDefinition/ch-rad-order-servicerequest#ServiceRequest.reasonReference",
                "text": "Hauptdiagnose",
                "type": "string",
                "repeats": true
              },
              {
                "linkId": "diagnosisList.secondaryDiagnosis",
                "definition": "http://fhir.ch/ig/ch-rad-order/StructureDefinition/ch-rad-order-servicerequest#ServiceRequest.supportingInfo:diagnosis",
                "text": "Nebendiagnose",
                "type": "string",
                "repeats": true
              },
              {
                "linkId": "diagnosisList.bodyHeight",
                "definition": "http://fhir.ch/ig/ch-rad-order/StructureDefinition/ch-rad-order-servicerequest#ServiceRequest.supportingInfo:bodyHeight",
                "text": "Grösse (cm)",
                "type": "quantity",
                "repeats": false
              },
              {
                "linkId": "diagnosisList.bodyWeight",
                "definition": "http://fhir.ch/ig/ch-rad-order/StructureDefinition/ch-rad-order-servicerequest#ServiceRequest.supportingInfo:bodyWeight",
                "text": "Gewicht (kg)",
                "type": "quantity",
                "repeats": false
              }
            ]
          },
          {
            "linkId": "caveat",
            "definition": "http://fhir.ch/ig/ch-rad-order/StructureDefinition/ch-rad-order-servicerequest#ServiceRequest.supportingInfo:caveats",
            "text": "Caveats",
            "type": "group",
            "item": [
              {
                "linkId": "caveat.bloodCoagulation",
                "definition": "http://fhir.ch/ig/ch-rad-order/StructureDefinition/ch-rad-order-caveat-condition#Condition.code",
                "text": "Beinträchtigte Blutgerinnung",
                "type": "choice",
                "required": true,
                "answerValueSet": "http://fhir.ch/ig/ch-rad-order/ValueSet/ch-rad-order-caveat-qualifier-value",
                "initial": [
                  {
                    "valueCoding": {
                      "system": "http://snomed.info/sct",
                      "code": "373068000"
                    }
                  }
                ],
                "item": [
                  {
                    "linkId": "caveat.bloodCoagulation.INR",
                    "definition": "http://fhir.ch/ig/ch-rad-order/StructureDefinition/ch-rad-order-caveat-condition#Condition.evidence.detail",
                    "text": "INR",
                    "type": "group",
                    "enableWhen": [
                      {
                        "question": "caveat.bloodCoagulation",
                        "operator": "=",
                        "answerCoding": {
                          "system": "http://snomed.info/sct",
                          "code": "52101004"
                        }
                      }
                    ],
                    "item": [
                      {
                        "linkId": "caveat.bloodCoagulation.INR.quantity",
                        "definition": "http://fhir.ch/ig/ch-rad-order/StructureDefinition/ch-rad-order-INR-observation#Observation.valueQuantity",
                        "text": "Wert (INR)",
                        "type": "quantity"
                      },
                      {
                        "linkId": "caveat.bloodCoagulation.INR.dateTime",
                        "definition": "http://fhir.ch/ig/ch-rad-order/StructureDefinition/ch-rad-order-INR-observation#Observation.effectiveDateTime",
                        "text": "Zeitpunkt der Bestimmung",
                        "type": "dateTime"
                      }
                    ]
                  },
                  {
                    "linkId": "caveat.bloodCoagulation.platelets",
                    "definition": "http://fhir.ch/ig/ch-rad-order/StructureDefinition/ch-rad-order-caveat-condition#Condition.evidence.detail",
                    "text": "Thrombozyten",
                    "type": "group",
                    "item": [
                      {
                        "linkId": "caveat.bloodCoagulation.platelets.quantity",
                        "definition": "http://fhir.ch/ig/ch-rad-order/StructureDefinition/ch-rad-order-platelets-observation#Observation.valueQuantity",
                        "text": "Wert (10^3/µL)",
                        "type": "quantity"
                      },
                      {
                        "linkId": "caveat.bloodCoagulation.platelets.dateTime",
                        "definition": "http://fhir.ch/ig/ch-rad-order/StructureDefinition/ch-rad-order-platelets-observation#Observation.effectiveDateTime",
                        "text": "Zeitpunkt der Bestimmung",
                        "type": "dateTime"
                      }
                    ]
                  }
                ]
              },
              {
                "linkId": "caveat.renalInsufficiency",
                "definition": "http://fhir.ch/ig/ch-rad-order/StructureDefinition/ch-rad-order-caveat-condition#Condition.code",
                "text": "Niereninsuffizienz",
                "type": "choice",
                "required": true,
                "answerValueSet": "http://fhir.ch/ig/ch-rad-order/ValueSet/ch-rad-order-caveat-qualifier-value",
                "initial": [
                  {
                    "valueCoding": {
                      "system": "http://snomed.info/sct",
                      "code": "373068000"
                    }
                  }
                ],
                "item": [
                  {
                    "linkId": "caveat.renalInsufficiency.creatinineClearance",
                    "definition": "http://fhir.ch/ig/ch-rad-order/StructureDefinition/ch-rad-order-caveat-condition#Condition.evidence.detail",
                    "text": "Creatinin-Clearance",
                    "type": "group",
                    "item": [
                      {
                        "linkId": "caveat.renalInsufficiency.creatinineClearance.quantity",
                        "definition": "http://fhir.ch/ig/ch-rad-order/StructureDefinition/ch-rad-order-creatinineclearance-observation#Observation.valueQuantity",
                        "text": "Wert (mL/min)",
                        "type": "quantity"
                      },
                      {
                        "linkId": "caveat.renalInsufficiency.creatinineClearance.dateTime",
                        "definition": "http://fhir.ch/ig/ch-rad-order/StructureDefinition/ch-rad-order-creatinineclearance-observation#Observation.effectiveDateTime",
                        "text": "Zeitpunkt der Bestimmung",
                        "type": "dateTime"
                      }
                    ]
                  },
                  {
                    "linkId": "caveat.renalInsufficiency.creatinine",
                    "definition": "http://fhir.ch/ig/ch-rad-order/StructureDefinition/ch-rad-order-caveat-condition#Condition.evidence.detail",
                    "text": "Creatinin",
                    "type": "group",
                    "item": [
                      {
                        "linkId": "caveat.renalInsufficiency.creatinine.quantity",
                        "definition": "http://fhir.ch/ig/ch-rad-order/StructureDefinition/ch-rad-order-creatinine-observation#Observation.valueQuantity",
                        "text": "Wert (µmol/L)",
                        "type": "quantity"
                      },
                      {
                        "linkId": "caveat.renalInsufficiency.creatinine.dateTime",
                        "definition": "http://fhir.ch/ig/ch-rad-order/StructureDefinition/ch-rad-order-creatinine-observation#Observation.effectiveDateTime",
                        "text": "Zeitpunkt der Bestimmung",
                        "type": "dateTime"
                      }
                    ]
                  }
                ]
              },
              {
                "linkId": "caveat.claustrophobia",
                "definition": "http://fhir.ch/ig/ch-rad-order/StructureDefinition/ch-rad-order-caveat-condition#Condition.code",
                "text": "Klaustrophobie",
                "type": "choice",
                "required": true,
                "answerValueSet": "http://fhir.ch/ig/ch-rad-order/ValueSet/ch-rad-order-caveat-qualifier-value",
                "initial": [
                  {
                    "valueCoding": {
                      "system": "http://snomed.info/sct",
                      "code": "373068000"
                    }
                  }
                ]
              },
              {
                "linkId": "caveat.bodyPiercing",
                "definition": "http://fhir.ch/ig/ch-rad-order/StructureDefinition/ch-rad-order-caveat-condition#Condition.code",
                "text": "Körperpiercing",
                "type": "choice",
                "required": true,
                "answerValueSet": "http://fhir.ch/ig/ch-rad-order/ValueSet/ch-rad-order-caveat-qualifier-value",
                "initial": [
                  {
                    "valueCoding": {
                      "system": "http://snomed.info/sct",
                      "code": "373068000"
                    }
                  }
                ]
              },
              {
                "linkId": "caveat.device",
                "text": "Device (Herzschrittmacher, Herzklappenersatz, Insulinpumpe etc.)",
                "type": "group",
                "repeats": true,
                "item": [
                  {
                    "linkId": "caveat.device.specifictype",
                    "definition": "http://fhir.ch/ig/ch-rad-order/StructureDefinition/ch-rad-order-caveat-condition#ch-rad-order-caveat-type",
                    "text": "Device",
                    "type": "choice",
                    "answerValueSet": "http://fhir.ch/ig/ch-rad-order/ValueSet/ch-rad-order-caveat-device"
                  },
                  {
                    "linkId": "caveat.device.choice",
                    "definition": "http://fhir.ch/ig/ch-rad-order/StructureDefinition/ch-rad-order-caveat-condition#Condition.code",
                    "text": "Choice",
                    "type": "choice",
                    "required": true,
                    "answerValueSet": "http://fhir.ch/ig/ch-rad-order/ValueSet/ch-rad-order-caveat-qualifier-value",
                    "initial": [
                      {
                        "valueCoding": {
                          "system": "http://snomed.info/sct",
                          "code": "373068000"
                        }
                      }
                    ]
                  }
                ]
              },
              {
                "linkId": "caveat.hyperthyroidism",
                "definition": "http://fhir.ch/ig/ch-rad-order/StructureDefinition/ch-rad-order-caveat-condition#Condition.code",
                "text": "Hyperthyreose",
                "type": "choice",
                "required": true,
                "answerValueSet": "http://fhir.ch/ig/ch-rad-order/ValueSet/ch-rad-order-caveat-qualifier-value",
                "initial": [
                  {
                    "valueCoding": {
                      "system": "http://snomed.info/sct",
                      "code": "373068000"
                    }
                  }
                ]
              },
              {
                "linkId": "caveat.diabetes",
                "definition": "http://fhir.ch/ig/ch-rad-order/StructureDefinition/ch-rad-order-caveat-condition#Condition.code",
                "text": "Diabetes mellitus",
                "type": "choice",
                "required": true,
                "answerValueSet": "http://fhir.ch/ig/ch-rad-order/ValueSet/ch-rad-order-caveat-qualifier-value"
              },
              {
                "linkId": "caveat.gravida",
                "definition": "http://fhir.ch/ig/ch-rad-order/StructureDefinition/ch-rad-order-caveat-condition#Condition.code",
                "text": "Schwangerschaft",
                "type": "choice",
                "required": true,
                "answerValueSet": "http://fhir.ch/ig/ch-rad-order/ValueSet/ch-rad-order-caveat-qualifier-value",
                "initial": [
                  {
                    "valueCoding": {
                      "system": "http://snomed.info/sct",
                      "code": "373068000"
                    }
                  }
                ]
              },
              {
                "linkId": "caveat.contrastMediaAllergy",
                "definition": "http://fhir.ch/ig/ch-rad-order/StructureDefinition/ch-rad-order-caveat-condition#Condition.code",
                "text": "Kontrastmittelallergie",
                "type": "choice",
                "required": true,
                "answerValueSet": "http://fhir.ch/ig/ch-rad-order/ValueSet/ch-rad-order-caveat-qualifier-value",
                "initial": [
                  {
                    "valueCoding": {
                      "system": "http://snomed.info/sct",
                      "code": "373068000"
                    }
                  }
                ]
              },
              {
                "linkId": "caveat.drugPrescription",
                "text": "Relevante Medikamente",
                "type": "group",
                "required": true,
                "item": [
                  {
                    "linkId": "caveat.drugPrescription.metformin",
                    "definition": "http://fhir.ch/ig/ch-rad-order/StructureDefinition/ch-rad-order-caveat-condition#Condition.code",
                    "text": "Metformin",
                    "type": "choice",
                    "required": true,
                    "answerValueSet": "http://fhir.ch/ig/ch-rad-order/ValueSet/ch-rad-order-caveat-qualifier-value",
                    "initial": [
                      {
                        "valueCoding": {
                          "system": "http://snomed.info/sct",
                          "code": "373068000"
                        }
                      }
                    ]
                  },
                  {
                    "linkId": "caveat.drugPrescription.betaBlocker",
                    "definition": "http://fhir.ch/ig/ch-rad-order/StructureDefinition/ch-rad-order-caveat-condition#Condition.code",
                    "text": "Betablocker",
                    "type": "choice",
                    "required": true,
                    "answerValueSet": "http://fhir.ch/ig/ch-rad-order/ValueSet/ch-rad-order-caveat-qualifier-value",
                    "initial": [
                      {
                        "valueCoding": {
                          "system": "http://snomed.info/sct",
                          "code": "373068000"
                        }
                      }
                    ]
                  }
                ]
              }
            ]
          },
          {
            "linkId": "previousResults",
            "definition": "http://fhir.ch/ig/ch-rad-order/StructureDefinition/ch-rad-order-servicerequest#ServiceRequest.supportingInfo:previousImagingResults",
            "text": "Vorherige Untersuchungsresultate",
            "type": "group",
            "item": [
              {
                "linkId": "previousResults.attachment",
                "definition": "http://fhir.ch/ig/ch-rad-order/StructureDefinition/ch-rad-order-media#Media.content.data",
                "text": "Daten",
                "type": "attachment",
                "repeats": true
              },
              {
                "linkId": "previousResults.imagingStudy",
                "text": "Bilder (DICOM)",
                "type": "group",
                "repeats": true,
                "item": [
                  {
                    "linkId": "previousResults.imagingStudy.StudyInstanceUid",
                    "definition": "http://fhir.ch/ig/ch-rad-order/StructureDefinition/ch-rad-order-imagingstudy#ImagingStudy.identifier",
                    "text": "DICOM Study Instance UID",
                    "type": "string"
                  },
                  {
                    "linkId": "previousResults.imagingStudy.acsn",
                    "definition": "http://fhir.ch/ig/ch-rad-order/StructureDefinition/ch-rad-order-imagingstudy#ImagingStudy.identifier",
                    "text": "ACSN",
                    "type": "string"
                  },
                  {
                    "linkId": "previousResults.imagingStudy.SeriesInstanceUid",
                    "definition": "http://fhir.ch/ig/ch-rad-order/StructureDefinition/ch-rad-order-imagingstudy#ImagingStudy.series.uid",
                    "text": "DICOM Series Instance UID",
                    "type": "string"
                  },
                  {
                    "linkId": "previousResults.imagingStudy.SopInstanceUid",
                    "definition": "http://fhir.ch/ig/ch-rad-order/StructureDefinition/ch-rad-order-imagingstudy#ImagingStudy.series.instance.uid",
                    "text": "DICOM SOP Instance UID",
                    "type": "string"
                  }
                ]
              }
            ]
          },
          {
            "linkId": "note",
            "text": "Bemerkungen",
            "type": "group",
            "repeats": true,
            "item": [
              {
                "linkId": "note.text",
                "definition": "http://fhir.ch/ig/ch-rad-order/StructureDefinition/ch-rad-order-servicerequest#ServiceRequest.note.text",
                "text": "Kommentar",
                "type": "string",
                "required": true
              }
            ]
          }
        ]
      }
    },
    {
      "fullUrl": "http://example.com/fhir/QuestionnaireResponse/QuestionnaireResponseRadiologyOrder",
      "resource": {
        "resourceType": "QuestionnaireResponse",
        "id": "QuestionnaireResponseRadiologyOrder",
        "meta": {
          "profile": [
            "http://fhir.ch/ig/ch-orf/StructureDefinition/ch-orf-questionnaireresponse"
          ]
        },
        "text": {
          "status": "generated",
          "div": "<div xmlns=\"http://www.w3.org/1999/xhtml\"><p><b>Generated Narrative</b></p><div style=\"display: inline-block; background-color: #d9e0e7; padding: 6px; margin: 4px; border: 1px solid #8da1b4; border-radius: 5px; line-height: 60%\"><p style=\"margin-bottom: 0px\">Resource \"QuestionnaireResponseRadiologyOrder\" </p><p style=\"margin-bottom: 0px\">Profile: <a href=\"http://fhir.ch/ig/ch-orf/StructureDefinition-ch-orf-questionnaireresponse.html\">CH ORF QuestionnaireResponse</a></p></div><p><b>questionnaire</b>: <a href=\"Questionnaire-QuestionnaireRadiologyOrder.html\">Questionnaire Radiology Order</a></p><p><b>status</b>: completed</p><blockquote><p><b>item</b></p><p><b>linkId</b>: order</p><p><b>text</b>: Auftrag</p><blockquote><p><b>item</b></p><p><b>linkId</b>: order.placerOrderIdentifier</p><p><b>text</b>: Auftragsnummer des Auftraggebers</p></blockquote><blockquote><p><b>item</b></p><p><b>linkId</b>: order.placerOrderIdentifierDomain</p><p><b>text</b>: Identifier Domain der Auftragsnummer des Auftraggebers</p></blockquote><blockquote><p><b>item</b></p><p><b>linkId</b>: order.priority</p><p><b>text</b>: Auftragspriorität</p></blockquote></blockquote><blockquote><p><b>item</b></p><p><b>linkId</b>: patient</p><p><b>text</b>: Patient</p><blockquote><p><b>item</b></p><p><b>linkId</b>: patient.familyName</p><p><b>text</b>: Name</p></blockquote><blockquote><p><b>item</b></p><p><b>linkId</b>: patient.maidenName</p><p><b>text</b>: Ledigname</p></blockquote><blockquote><p><b>item</b></p><p><b>linkId</b>: patient.givenName</p><p><b>text</b>: Vorname</p></blockquote><blockquote><p><b>item</b></p><p><b>linkId</b>: patient.birthDate</p><p><b>text</b>: Geburtsdatum</p></blockquote><blockquote><p><b>item</b></p><p><b>linkId</b>: patient.gender</p><p><b>text</b>: Geschlecht</p></blockquote><blockquote><p><b>item</b></p><p><b>linkId</b>: patient.phone</p><p><b>text</b>: Telefon</p></blockquote><blockquote><p><b>item</b></p><p><b>linkId</b>: patient.email</p><p><b>text</b>: E-Mail</p></blockquote><blockquote><p><b>item</b></p><p><b>linkId</b>: patient.streetAddressLine</p><p><b>text</b>: Strasse, Hausnummer, Postfach etc.</p></blockquote><blockquote><p><b>item</b></p><p><b>linkId</b>: patient.postalCode</p><p><b>text</b>: PLZ</p></blockquote><blockquote><p><b>item</b></p><p><b>linkId</b>: patient.city</p><p><b>text</b>: Ort</p></blockquote><blockquote><p><b>item</b></p><p><b>linkId</b>: patient.country</p><p><b>text</b>: Land</p></blockquote></blockquote><blockquote><p><b>item</b></p><p><b>linkId</b>: coverage</p><p><b>text</b>: Kostenträger</p><blockquote><p><b>item</b></p><p><b>linkId</b>: coverage.kvg</p><p><b>text</b>: Krankenkasse (nach KVG)</p></blockquote></blockquote><blockquote><p><b>item</b></p><p><b>linkId</b>: sender</p><p><b>text</b>: Absender</p><blockquote><p><b>item</b></p><p><b>linkId</b>: sender.author</p><p><b>text</b>: Verantwortlicher</p></blockquote><blockquote><p><b>item</b></p><p><b>linkId</b>: sender.dataenterer</p><p><b>text</b>: Erfasser</p></blockquote></blockquote><blockquote><p><b>item</b></p><p><b>linkId</b>: receiver</p><p><b>text</b>: Empfänger</p><blockquote><p><b>item</b></p><p><b>linkId</b>: receiver.practitioner</p></blockquote><blockquote><p><b>item</b></p><p><b>linkId</b>: receiver.organization</p><p><b>text</b>: Empfangende Organisation</p></blockquote></blockquote><blockquote><p><b>item</b></p><p><b>linkId</b>: receiverCopy</p><blockquote><p><b>item</b></p><p><b>linkId</b>: receiverCopy.practitionerRole</p></blockquote><blockquote><p><b>item</b></p><p><b>linkId</b>: receiverCopy.patient</p></blockquote><blockquote><p><b>item</b></p><p><b>linkId</b>: receiverCopy.relatedPerson</p></blockquote></blockquote><blockquote><p><b>item</b></p><p><b>linkId</b>: appointment</p><p><b>text</b>: Ort und Zeit der Durchführung der angeforderten Leistung</p><blockquote><p><b>item</b></p><p><b>linkId</b>: appointment.location</p><p><b>text</b>: Ort der Durchführung</p></blockquote><blockquote><p><b>item</b></p><p><b>linkId</b>: appointment.requestedPeriod</p><p><b>text</b>: Datum und Zeit, wann der Termin bevorzugt geplant werden soll</p></blockquote><blockquote><p><b>item</b></p><p><b>linkId</b>: appointment.status</p><p><b>text</b>: Status</p></blockquote><blockquote><p><b>item</b></p><p><b>linkId</b>: appointment.patientInstruction</p><p><b>text</b>: Patienteninformation für diesen Termin</p></blockquote></blockquote><blockquote><p><b>item</b></p><p><b>linkId</b>: requestedService</p><p><b>text</b>: Angeforderte Leistung</p><blockquote><p><b>item</b></p><p><b>linkId</b>: requestedService.service</p><p><b>text</b>: Leistung</p></blockquote></blockquote><blockquote><p><b>item</b></p><p><b>linkId</b>: reason</p><p><b>text</b>: Klinische Fragestellung</p><blockquote><p><b>item</b></p><p><b>linkId</b>: reason.question</p><p><b>text</b>: Fragestellung</p></blockquote></blockquote><blockquote><p><b>item</b></p><p><b>linkId</b>: imagingService</p><p><b>text</b>: Bildgebendes Verfahren</p><blockquote><p><b>item</b></p><p><b>linkId</b>: imagingService.type</p><p><b>text</b>: Art</p></blockquote></blockquote><blockquote><p><b>item</b></p><p><b>linkId</b>: orderDetail</p><p><b>text</b>: Weitere Angaben zur Bildgebung</p><blockquote><p><b>item</b></p><p><b>linkId</b>: orderDetail.imagingRegion</p><p><b>text</b>: Region</p></blockquote><blockquote><p><b>item</b></p><p><b>linkId</b>: orderDetail.imagingFocus</p><p><b>text</b>: Fokus</p></blockquote></blockquote><blockquote><p><b>item</b></p><p><b>linkId</b>: desiredRadiologist</p><p><b>text</b>: Gewünschter Radiologe für die Befundung / für die Intervention</p><blockquote><p><b>item</b></p><p><b>linkId</b>: desiredRadiologist.familyName</p><p><b>text</b>: Name</p></blockquote><blockquote><p><b>item</b></p><p><b>linkId</b>: desiredRadiologist.givenName</p><p><b>text</b>: Vorname</p></blockquote></blockquote><blockquote><p><b>item</b></p><p><b>linkId</b>: diagnosisList</p><p><b>text</b>: Diagnosen und Befunde</p><blockquote><p><b>item</b></p><p><b>linkId</b>: diagnosisList.primaryDiagnosis</p><p><b>text</b>: Hauptdiagnose</p></blockquote><blockquote><p><b>item</b></p><p><b>linkId</b>: diagnosisList.secondaryDiagnosis</p><p><b>text</b>: Nebendiagnose</p></blockquote><blockquote><p><b>item</b></p><p><b>linkId</b>: diagnosisList.bodyHeight</p><p><b>text</b>: Grösse (cm)</p></blockquote><blockquote><p><b>item</b></p><p><b>linkId</b>: diagnosisList.bodyWeight</p><p><b>text</b>: Gewicht (kg)</p></blockquote></blockquote><blockquote><p><b>item</b></p><p><b>linkId</b>: caveat</p><blockquote><p><b>item</b></p><p><b>linkId</b>: caveat.bloodCoagulation</p></blockquote><blockquote><p><b>item</b></p><p><b>linkId</b>: caveat.renalInsufficiency</p></blockquote><blockquote><p><b>item</b></p><p><b>linkId</b>: caveat.claustrophobia</p></blockquote><blockquote><p><b>item</b></p><p><b>linkId</b>: caveat.bodyPiercing</p></blockquote><blockquote><p><b>item</b></p><p><b>linkId</b>: caveat.device</p></blockquote><blockquote><p><b>item</b></p><p><b>linkId</b>: caveat.hyperthyroidism</p></blockquote><blockquote><p><b>item</b></p><p><b>linkId</b>: caveat.diabetes</p></blockquote><blockquote><p><b>item</b></p><p><b>linkId</b>: caveat.gravida</p></blockquote><blockquote><p><b>item</b></p><p><b>linkId</b>: caveat.contrastMediaAllergy</p></blockquote><blockquote><p><b>item</b></p><p><b>linkId</b>: caveat.drugPrescription</p></blockquote></blockquote><blockquote><p><b>item</b></p><p><b>linkId</b>: previousResults</p><p><b>text</b>: Vorherige Untersuchungsresultate</p><blockquote><p><b>item</b></p><p><b>linkId</b>: previousResults.attachment</p><p><b>text</b>: Daten</p></blockquote></blockquote><blockquote><p><b>item</b></p><p><b>linkId</b>: note</p><p><b>text</b>: Bemerkungen</p><blockquote><p><b>item</b></p><p><b>linkId</b>: note.text</p><p><b>text</b>: Kommentar</p></blockquote></blockquote></div>"
        },
        "questionnaire": "http://fhir.ch/ig/ch-rad-order/StructureDefinition/QuestionnaireRadiologyOrder",
        "status": "completed",
        "item": [
          {
            "linkId": "order",
            "text": "Auftrag",
            "item": [
              {
                "linkId": "order.placerOrderIdentifier",
                "text": "Auftragsnummer des Auftraggebers",
                "answer": [
                  {
                    "valueString": "12345"
                  }
                ]
              },
              {
                "linkId": "order.placerOrderIdentifierDomain",
                "text": "Identifier Domain der Auftragsnummer des Auftraggebers",
                "answer": [
                  {
                    "valueString": "urn:oid:1.3.4.5.6.7"
                  }
                ]
              },
              {
                "linkId": "order.priority",
                "text": "Auftragspriorität",
                "answer": [
                  {
                    "valueCoding": {
                      "system": "http://hl7.org/fhir/request-priority",
                      "code": "routine",
                      "display": "Die Anfrage hat normale Priorität."
                    }
                  }
                ]
              }
            ]
          },
          {
            "linkId": "patient",
            "text": "Patient",
            "item": [
              {
                "linkId": "patient.familyName",
                "text": "Name",
                "answer": [
                  {
                    "valueString": "Ufferer"
                  }
                ]
              },
              {
                "linkId": "patient.maidenName",
                "text": "Ledigname",
                "answer": [
                  {
                    "valueString": "Leidend"
                  }
                ]
              },
              {
                "linkId": "patient.givenName",
                "text": "Vorname",
                "answer": [
                  {
                    "valueString": "Susanna"
                  }
                ]
              },
              {
                "linkId": "patient.birthDate",
                "text": "Geburtsdatum",
                "answer": [
                  {
                    "valueDate": "1970-03-14"
                  }
                ]
              },
              {
                "linkId": "patient.gender",
                "text": "Geschlecht",
                "answer": [
                  {
                    "valueCoding": {
                      "system": "http://hl7.org/fhir/administrative-gender",
                      "code": "female"
                    }
                  }
                ]
              },
              {
                "linkId": "patient.phone",
                "text": "Telefon",
                "answer": [
                  {
                    "valueString": "+41 79 979 79 79"
                  }
                ]
              },
              {
                "linkId": "patient.email",
                "text": "E-Mail",
                "answer": [
                  {
                    "valueString": "susanna@ufferer.ch"
                  }
                ]
              },
              {
                "linkId": "patient.streetAddressLine",
                "text": "Strasse, Hausnummer, Postfach etc.",
                "answer": [
                  {
                    "valueString": "Musterweg"
                  },
                  {
                    "valueString": "6a"
                  }
                ]
              },
              {
                "linkId": "patient.postalCode",
                "text": "PLZ",
                "answer": [
                  {
                    "valueString": "8000"
                  }
                ]
              },
              {
                "linkId": "patient.city",
                "text": "Ort",
                "answer": [
                  {
                    "valueString": "Zürich"
                  }
                ]
              },
              {
                "linkId": "patient.country",
                "text": "Land",
                "answer": [
                  {
                    "valueString": "Schweiz"
                  }
                ]
              }
            ]
          },
          {
            "linkId": "coverage",
            "text": "Kostenträger",
            "item": [
              {
                "linkId": "coverage.kvg",
                "text": "Krankenkasse (nach KVG)",
                "item": [
                  {
                    "linkId": "coverage.kvg.name",
                    "text": "Name der Versicherung",
                    "answer": [
                      {
                        "valueString": "Sanitas"
                      }
                    ]
                  },
                  {
                    "linkId": "coverage.kvg.insuranceCardNumber",
                    "text": "Kennnummer der Versichertenkarte",
                    "answer": [
                      {
                        "valueString": "80756015090002647590"
                      }
                    ]
                  }
                ]
              }
            ]
          },
          {
            "linkId": "sender",
            "text": "Absender",
            "item": [
              {
                "linkId": "sender.author",
                "text": "Verantwortlicher",
                "item": [
                  {
                    "linkId": "sender.author.practitioner",
                    "text": "Verantwortliche Person",
                    "item": [
                      {
                        "linkId": "sender.author.practitioner.title",
                        "text": "Titel",
                        "answer": [
                          {
                            "valueString": "Dr. med."
                          }
                        ]
                      },
                      {
                        "linkId": "sender.author.practitioner.familyName",
                        "text": "Name",
                        "answer": [
                          {
                            "valueString": "Rderplacer"
                          }
                        ]
                      },
                      {
                        "linkId": "sender.author.practitioner.givenName",
                        "text": "Vorname",
                        "answer": [
                          {
                            "valueString": "Ottilie"
                          }
                        ]
                      },
                      {
                        "linkId": "sender.author.practitioner.gln",
                        "text": "GLN",
                        "answer": [
                          {
                            "valueString": "7601000034321"
                          }
                        ]
                      },
                      {
                        "linkId": "sender.author.practitioner.phone",
                        "text": "Telefon",
                        "answer": [
                          {
                            "valueString": "+41 44 333 22 11"
                          }
                        ]
                      },
                      {
                        "linkId": "sender.author.practitioner.email",
                        "text": "E-Mail",
                        "answer": [
                          {
                            "valueString": "o.rderplacer@happydoctors.ch"
                          }
                        ]
                      }
                    ]
                  },
                  {
                    "linkId": "sender.author.organization",
                    "text": "Verantwortliche Organisation",
                    "item": [
                      {
                        "linkId": "sender.author.organization.name",
                        "text": "Name der Organisation",
                        "answer": [
                          {
                            "valueString": "Praxis Happy Doctors"
                          }
                        ]
                      },
                      {
                        "linkId": "sender.author.organization.streetAddressLine",
                        "text": "Strasse, Hausnummer, Postfach etc.",
                        "answer": [
                          {
                            "valueString": "Kantonsstrasse 14"
                          },
                          {
                            "valueString": "Postfach 14"
                          }
                        ]
                      },
                      {
                        "linkId": "sender.author.organization.postalCode",
                        "text": "PLZ",
                        "answer": [
                          {
                            "valueString": "8000"
                          }
                        ]
                      },
                      {
                        "linkId": "sender.author.organization.city",
                        "text": "Ort",
                        "answer": [
                          {
                            "valueString": "Zürich"
                          }
                        ]
                      },
                      {
                        "linkId": "sender.author.organization.country",
                        "text": "Land",
                        "answer": [
                          {
                            "valueString": "Schweiz"
                          }
                        ]
                      }
                    ]
                  }
                ]
              },
              {
                "linkId": "sender.dataenterer",
                "text": "Erfasser",
                "item": [
                  {
                    "linkId": "sender.dataenterer.practitioner",
                    "text": "Erfassende Person",
                    "item": [
                      {
                        "linkId": "sender.dataenterer.practitioner.familyName",
                        "text": "Name",
                        "answer": [
                          {
                            "valueString": "Ataenterer"
                          }
                        ]
                      },
                      {
                        "linkId": "sender.dataenterer.practitioner.givenName",
                        "text": "Vorname",
                        "answer": [
                          {
                            "valueString": "Doris"
                          }
                        ]
                      },
                      {
                        "linkId": "sender.dataenterer.practitioner.phone",
                        "text": "Telefon",
                        "answer": [
                          {
                            "valueString": "+41 44 333 22 11"
                          }
                        ]
                      },
                      {
                        "linkId": "sender.dataenterer.practitioner.email",
                        "text": "E-Mail",
                        "answer": [
                          {
                            "valueString": "d.ataenterer@happydoctors.ch"
                          }
                        ]
                      }
                    ]
                  }
                ]
              }
            ]
          },
          {
            "linkId": "receiver",
            "text": "Empfänger",
            "item": [
              {
                "linkId": "receiver.practitioner",
                "item": [
                  {
                    "linkId": "receiver.practitioner.title",
                    "answer": [
                      {
                        "valueString": "Dr. med."
                      }
                    ]
                  },
                  {
                    "linkId": "receiver.practitioner.familyName",
                    "answer": [
                      {
                        "valueString": "Rderfiller"
                      }
                    ]
                  },
                  {
                    "linkId": "receiver.practitioner.givenName",
                    "answer": [
                      {
                        "valueString": "Ottilie"
                      }
                    ]
                  },
                  {
                    "linkId": "receiver.practitioner.gln",
                    "answer": [
                      {
                        "valueString": "7601000000000"
                      }
                    ]
                  }
                ]
              },
              {
                "linkId": "receiver.organization",
                "text": "Empfangende Organisation",
                "item": [
                  {
                    "linkId": "receiver.organization.name",
                    "text": "Name der Organisation",
                    "answer": [
                      {
                        "valueString": "Klinik Happy Hospital"
                      }
                    ]
                  },
                  {
                    "linkId": "receiver.organization.streetAddressLine",
                    "text": "Strasse, Hausnummer, Postfach etc.",
                    "answer": [
                      {
                        "valueString": "Seestrasse 133"
                      },
                      {
                        "valueString": "Haus C"
                      }
                    ]
                  },
                  {
                    "linkId": "receiver.organization.postalCode",
                    "text": "PLZ",
                    "answer": [
                      {
                        "valueString": "8000"
                      }
                    ]
                  },
                  {
                    "linkId": "receiver.organization.city",
                    "text": "Ort",
                    "answer": [
                      {
                        "valueString": "Zürich"
                      }
                    ]
                  },
                  {
                    "linkId": "receiver.organization.country",
                    "text": "Land",
                    "answer": [
                      {
                        "valueString": "Schweiz"
                      }
                    ]
                  }
                ]
              }
            ]
          },
          {
            "linkId": "receiverCopy",
            "item": [
              {
                "linkId": "receiverCopy.practitionerRole",
                "item": [
                  {
                    "linkId": "receiverCopy.practitionerRole.practitioner",
                    "item": [
                      {
                        "linkId": "receiverCopy.practitionerRole.practitioner.title",
                        "answer": [
                          {
                            "valueString": "Dr. med."
                          }
                        ]
                      },
                      {
                        "linkId": "receiverCopy.practitionerRole.practitioner.familyName",
                        "answer": [
                          {
                            "valueString": "Ausarzt"
                          }
                        ]
                      },
                      {
                        "linkId": "receiverCopy.practitionerRole.practitioner.givenName",
                        "answer": [
                          {
                            "valueString": "Hans"
                          }
                        ]
                      },
                      {
                        "linkId": "receiverCopy.practitionerRole.practitioner.email",
                        "answer": [
                          {
                            "valueString": "hans@ausarzt.ch"
                          }
                        ]
                      }
                    ]
                  }
                ]
              },
              {
                "linkId": "receiverCopy.patient"
              },
              {
                "linkId": "receiverCopy.relatedPerson"
              }
            ]
          },
          {
            "linkId": "appointment",
            "text": "Ort und Zeit der Durchführung der angeforderten Leistung",
            "item": [
              {
                "linkId": "appointment.location",
                "text": "Ort der Durchführung",
                "item": [
                  {
                    "linkId": "appointment.location.name",
                    "text": "Name",
                    "answer": [
                      {
                        "valueString": "Radiologie"
                      }
                    ]
                  },
                  {
                    "linkId": "appointment.location.phone",
                    "text": "Telefon",
                    "answer": [
                      {
                        "valueString": "+41 44 412 65 56"
                      }
                    ]
                  },
                  {
                    "linkId": "appointment.location.streetAddressLine",
                    "text": "Strasse, Hausnummer, Postfach etc.",
                    "answer": [
                      {
                        "valueString": "Seestrasse 133"
                      },
                      {
                        "valueString": "Röntgen"
                      }
                    ]
                  },
                  {
                    "linkId": "appointment.location.postalCode",
                    "text": "PLZ",
                    "answer": [
                      {
                        "valueString": "8000"
                      }
                    ]
                  },
                  {
                    "linkId": "appointment.location.city",
                    "text": "Ort",
                    "answer": [
                      {
                        "valueString": "Zürich"
                      }
                    ]
                  },
                  {
                    "linkId": "appointment.location.country",
                    "text": "Land",
                    "answer": [
                      {
                        "valueString": "Schweiz"
                      }
                    ]
                  }
                ]
              },
              {
                "linkId": "appointment.requestedPeriod",
                "text": "Datum und Zeit, wann der Termin bevorzugt geplant werden soll",
                "item": [
                  {
                    "linkId": "appointment.requestedPeriod.start",
                    "text": "Von",
                    "answer": [
                      {
                        "valueDateTime": "2019-04-01T15:00:00.000+00:00"
                      }
                    ]
                  },
                  {
                    "linkId": "appointment.requestedPeriod.end",
                    "text": "Bis",
                    "answer": [
                      {
                        "valueDateTime": "2019-04-01T15:30:00.000+00:00"
                      }
                    ]
                  }
                ]
              },
              {
                "linkId": "appointment.status",
                "text": "Status",
                "answer": [
                  {
                    "valueCoding": {
                      "system": "http://hl7.org/fhir/appointmentstatus",
                      "code": "proposed"
                    }
                  }
                ]
              },
              {
                "linkId": "appointment.patientInstruction",
                "text": "Patienteninformation für diesen Termin",
                "answer": [
                  {
                    "valueString": "Wunschtermin der Patientin"
                  }
                ]
              }
            ]
          },
          {
            "linkId": "requestedService",
            "text": "Angeforderte Leistung",
            "item": [
              {
                "linkId": "requestedService.service",
                "text": "Leistung",
                "answer": [
                  {
                    "valueCoding": {
                      "system": "http://fhir.ch/ig/ch-rad-order/CodeSystem/ch-rad-order-requested-service",
                      "code": "ImagingRequest",
                      "display": "Bildgebende Diagnostik"
                    }
                  }
                ]
              }
            ]
          },
          {
            "linkId": "reason",
            "text": "Klinische Fragestellung",
            "item": [
              {
                "linkId": "reason.question",
                "text": "Fragestellung",
                "answer": [
                  {
                    "valueString": "Diagnostic Question"
                  }
                ]
              }
            ]
          },
          {
            "linkId": "imagingService",
            "text": "Bildgebendes Verfahren",
            "item": [
              {
                "linkId": "imagingService.type",
                "text": "Art",
                "answer": [
                  {
                    "valueCoding": {
                      "system": "http://www.radlex.org",
                      "code": "RID10345",
                      "display": "projection radiography"
                    }
                  }
                ]
              }
            ]
          },
          {
            "linkId": "orderDetail",
            "text": "Weitere Angaben zur Bildgebung",
            "item": [
              {
                "linkId": "orderDetail.imagingRegion",
                "text": "Region",
                "answer": [
                  {
                    "valueCoding": {
                      "system": "http://www.radlex.org",
                      "code": "RID1243",
                      "display": "Thorax"
                    }
                  }
                ]
              },
              {
                "linkId": "orderDetail.imagingFocus",
                "text": "Fokus",
                "answer": [
                  {
                    "valueCoding": {
                      "system": "http://www.radlex.org",
                      "code": "RID2468",
                      "display": "Chest wall"
                    }
                  }
                ]
              }
            ]
          },
          {
            "linkId": "desiredRadiologist",
            "text": "Gewünschter Radiologe für die Befundung / für die Intervention",
            "item": [
              {
                "linkId": "desiredRadiologist.familyName",
                "text": "Name",
                "answer": [
                  {
                    "valueString": "Rderfiller"
                  }
                ]
              },
              {
                "linkId": "desiredRadiologist.givenName",
                "text": "Vorname",
                "answer": [
                  {
                    "valueString": "Otto"
                  }
                ]
              }
            ]
          },
          {
            "linkId": "diagnosisList",
            "text": "Diagnosen und Befunde",
            "item": [
              {
                "linkId": "diagnosisList.primaryDiagnosis",
                "text": "Hauptdiagnose",
                "answer": [
                  {
                    "valueString": "Primary Diagnosis"
                  }
                ]
              },
              {
                "linkId": "diagnosisList.secondaryDiagnosis",
                "text": "Nebendiagnose",
                "answer": [
                  {
                    "valueString": "Secondary Diagnosis 1"
                  },
                  {
                    "valueString": "Secondary Diagnosis 2"
                  }
                ]
              },
              {
                "linkId": "diagnosisList.bodyHeight",
                "text": "Grösse (cm)",
                "answer": [
                  {
                    "valueQuantity": {
                      "value": 176,
                      "unit": "cm",
                      "system": "http://unitsofmeasure.org",
                      "code": "cm"
                    }
                  }
                ]
              },
              {
                "linkId": "diagnosisList.bodyWeight",
                "text": "Gewicht (kg)",
                "answer": [
                  {
                    "valueQuantity": {
                      "value": 99,
                      "unit": "kg",
                      "system": "http://unitsofmeasure.org",
                      "code": "kg"
                    }
                  }
                ]
              }
            ]
          },
          {
            "linkId": "caveat",
            "item": [
              {
                "linkId": "caveat.bloodCoagulation",
                "answer": [
                  {
                    "valueCoding": {
                      "system": "http://snomed.info/sct",
                      "code": "52101004"
                    }
                  }
                ]
              },
              {
                "linkId": "caveat.renalInsufficiency",
                "answer": [
                  {
                    "valueCoding": {
                      "system": "http://snomed.info/sct",
                      "code": "52101004"
                    },
                    "item": [
                      {
                        "linkId": "caveat.renalInsufficiency.creatinineClearance",
                        "item": [
                          {
                            "linkId": "caveat.renalInsufficiency.creatinineClearance.quantity",
                            "answer": [
                              {
                                "valueQuantity": {
                                  "value": 55,
                                  "system": "http://unitsofmeasure.org",
                                  "code": "mL/min"
                                }
                              }
                            ]
                          },
                          {
                            "linkId": "caveat.renalInsufficiency.creatinineClearance.dateTime",
                            "answer": [
                              {
                                "valueDateTime": "2019-04-01T10:10:00.000+00:00"
                              }
                            ]
                          }
                        ]
                      },
                      {
                        "linkId": "caveat.renalInsufficiency.creatinine",
                        "item": [
                          {
                            "linkId": "caveat.renalInsufficiency.creatinine.quantity",
                            "answer": [
                              {
                                "valueQuantity": {
                                  "value": 90,
                                  "system": "http://unitsofmeasure.org",
                                  "code": "umol/L"
                                }
                              }
                            ]
                          },
                          {
                            "linkId": "caveat.renalInsufficiency.creatinine.dateTime",
                            "answer": [
                              {
                                "valueDateTime": "2019-04-01T10:10:00.000+00:00"
                              }
                            ]
                          }
                        ]
                      }
                    ]
                  }
                ]
              },
              {
                "linkId": "caveat.claustrophobia",
                "answer": [
                  {
                    "valueCoding": {
                      "system": "http://snomed.info/sct",
                      "code": "373068000"
                    }
                  }
                ]
              },
              {
                "linkId": "caveat.bodyPiercing",
                "answer": [
                  {
                    "valueCoding": {
                      "system": "http://snomed.info/sct",
                      "code": "373068000"
                    }
                  }
                ]
              },
              {
                "linkId": "caveat.device",
                "item": [
                  {
                    "linkId": "caveat.device.specifictype",
                    "answer": [
                      {
                        "valueCoding": {
                          "system": "http://snomed.info/sct",
                          "code": "441509002"
                        }
                      }
                    ]
                  },
                  {
                    "linkId": "caveat.device.choice",
                    "answer": [
                      {
                        "valueCoding": {
                          "system": "http://snomed.info/sct",
                          "code": "52101004"
                        }
                      }
                    ]
                  }
                ]
              },
              {
                "linkId": "caveat.hyperthyroidism",
                "answer": [
                  {
                    "valueCoding": {
                      "system": "http://snomed.info/sct",
                      "code": "373068000"
                    }
                  }
                ]
              },
              {
                "linkId": "caveat.diabetes",
                "answer": [
                  {
                    "valueCoding": {
                      "system": "http://snomed.info/sct",
                      "code": "373068000"
                    }
                  }
                ]
              },
              {
                "linkId": "caveat.gravida",
                "answer": [
                  {
                    "valueCoding": {
                      "system": "http://snomed.info/sct",
                      "code": "373068000"
                    }
                  }
                ]
              },
              {
                "linkId": "caveat.contrastMediaAllergy",
                "answer": [
                  {
                    "valueCoding": {
                      "system": "http://snomed.info/sct",
                      "code": "373068000"
                    }
                  }
                ]
              },
              {
                "linkId": "caveat.drugPrescription",
                "item": [
                  {
                    "linkId": "caveat.drugPrescription.metformin",
                    "answer": [
                      {
                        "valueCoding": {
                          "system": "http://snomed.info/sct",
                          "code": "373068000"
                        }
                      }
                    ]
                  },
                  {
                    "linkId": "caveat.drugPrescription.betaBlocker",
                    "answer": [
                      {
                        "valueCoding": {
                          "system": "http://snomed.info/sct",
                          "code": "373068000"
                        }
                      }
                    ]
                  }
                ]
              }
            ]
          },
          {
            "linkId": "previousResults",
            "text": "Vorherige Untersuchungsresultate",
            "item": [
              {
                "linkId": "previousResults.attachment",
                "text": "Daten",
                "answer": [
                  {
                    "valueAttachment": {
                      "contentType": "application/dicom",
                      "data": "RXhhbXBsZQ==",
                      "title": "xray_chest_S_Ufferer_20190401.dcm"
                    }
                  }
                ]
              }
            ]
          },
          {
            "linkId": "note",
            "text": "Bemerkungen",
            "item": [
              {
                "linkId": "note.text",
                "text": "Kommentar",
                "answer": [
                  {
                    "valueString": "Bemerkung/Kommentar"
                  }
                ]
              }
            ]
          }
        ]
      }
    },
    {
      "fullUrl": "http://example.com/fhir/ServiceRequest/ServiceRequestRadiologyOrder",
      "resource": {
        "resourceType": "ServiceRequest",
        "id": "ServiceRequestRadiologyOrder",
        "meta": {
          "profile": [
            "http://fhir.ch/ig/ch-rad-order/StructureDefinition/ch-rad-order-servicerequest"
          ]
        },
        "text": {
          "status": "extensions",
          "div": "<div xmlns=\"http://www.w3.org/1999/xhtml\"><p><b>Generated Narrative</b></p><div style=\"display: inline-block; background-color: #d9e0e7; padding: 6px; margin: 4px; border: 1px solid #8da1b4; border-radius: 5px; line-height: 60%\"><p style=\"margin-bottom: 0px\">Resource \"ServiceRequestRadiologyOrder\" </p><p style=\"margin-bottom: 0px\">Profile: <a href=\"StructureDefinition-ch-rad-order-servicerequest.html\">CH RAD-Order ServiceRequest</a></p></div><p><b>CH ORF Location and Time</b>: <a href=\"#Appointment_AppointmentRadiography\">See above (Appointment/AppointmentRadiography)</a></p><p><b>identifier</b>: Placer Identifier: 12345</p><p><b>status</b>: active</p><p><b>intent</b>: order</p><p><b>category</b>: Bildgebende Diagnostik <span style=\"background: LightGoldenRodYellow; margin: 4px; border: 1px solid khaki\"> (<a href=\"CodeSystem-ch-rad-order-requested-service.html\">Requested Service</a>#ImagingRequest)</span></p><p><b>priority</b>: routine</p><p><b>code</b>: projection radiography <span style=\"background: LightGoldenRodYellow; margin: 4px; border: 1px solid khaki\"> (<a href=\"CodeSystem-ch-rad-order-radlex.html\">RadLex Extract</a>#RID10345)</span></p><p><b>orderDetail</b>: Thorax <span style=\"background: LightGoldenRodYellow; margin: 4px; border: 1px solid khaki\"> (<a href=\"CodeSystem-ch-rad-order-radlex.html\">RadLex Extract</a>#RID1243)</span></p><p><b>subject</b>: <a href=\"#Patient_SUfferer\">See above (Patient/SUfferer)</a></p><p><b>requester</b>: <a href=\"#PractitionerRole_ORderplacerHappyDoctors\">See above (PractitionerRole/ORderplacerHappyDoctors)</a></p><p><b>performer</b>: <a href=\"#PractitionerRole_ORderfillerHappyHospital\">See above (PractitionerRole/ORderfillerHappyHospital)</a></p><p><b>reasonCode</b>: Diagnostic Question <span style=\"background: LightGoldenRodYellow; margin: 4px; border: 1px solid khaki\"> ()</span></p><p><b>reasonReference</b>: <a href=\"#Condition_PrimaryDiagnosis\">See above (Condition/PrimaryDiagnosis)</a></p><p><b>insurance</b>: <a href=\"#Coverage_CoverageKVG\">See above (Coverage/CoverageKVG)</a></p><p><b>supportingInfo</b>: </p><ul><li><a href=\"#Observation_BodyHeight\">See above (Observation/BodyHeight)</a></li><li><a href=\"#Observation_BodyWeight\">See above (Observation/BodyWeight)</a></li><li><a href=\"#Condition_SecondaryDiagnosis1\">See above (Condition/SecondaryDiagnosis1)</a></li><li><a href=\"#Condition_SecondaryDiagnosis2\">See above (Condition/SecondaryDiagnosis2)</a></li><li><a href=\"#Condition_CaveatBloodCoagulation\">See above (Condition/CaveatBloodCoagulation)</a></li><li><a href=\"#Condition_CaveatRenalInsufficiency\">See above (Condition/CaveatRenalInsufficiency)</a></li><li><a href=\"#Condition_CaveatBodyPiercing\">See above (Condition/CaveatBodyPiercing)</a></li><li><a href=\"#Condition_CaveatDeviceCardiacPacemaker\">See above (Condition/CaveatDeviceCardiacPacemaker)</a></li><li><a href=\"#Condition_CaveatDrugPrescriptionMetformin\">See above (Condition/CaveatDrugPrescriptionMetformin)</a></li><li><a href=\"#Media_MediaRx\">See above (Media/MediaRx)</a></li></ul><p><b>bodySite</b>: Chest wall <span style=\"background: LightGoldenRodYellow; margin: 4px; border: 1px solid khaki\"> (<a href=\"CodeSystem-ch-rad-order-radlex.html\">RadLex Extract</a>#RID2468)</span></p><p><b>note</b>: Bemerkung/Kommentar</p></div>"
        },
        "extension": [
          {
            "url": "http://fhir.ch/ig/ch-orf/StructureDefinition/ch-orf-locationandtime",
            "valueReference": {
              "reference": "Appointment/AppointmentRadiography"
            }
          }
        ],
        "identifier": [
          {
            "type": {
              "coding": [
                {
                  "system": "http://terminology.hl7.org/CodeSystem/v2-0203",
                  "code": "PLAC"
                }
              ]
            },
            "system": "urn:oid:1.3.4.5.6.7",
            "value": "12345"
          }
        ],
        "status": "active",
        "intent": "order",
        "category": [
          {
            "coding": [
              {
                "system": "http://fhir.ch/ig/ch-rad-order/CodeSystem/ch-rad-order-requested-service",
                "code": "ImagingRequest",
                "display": "Bildgebende Diagnostik"
              }
            ]
          }
        ],
        "priority": "routine",
        "code": {
          "coding": [
            {
              "system": "http://www.radlex.org",
              "code": "RID10345",
              "display": "projection radiography"
            }
          ]
        },
        "orderDetail": [
          {
            "extension": [
              {
                "url": "http://fhir.ch/ig/ch-rad-order/StructureDefinition/ch-rad-order-order-detail-type",
                "valueCoding": {
                  "system": "http://fhir.ch/ig/ch-rad-order/CodeSystem/ch-rad-order-order-detail-type",
                  "code": "imagingRegion"
                }
              }
            ],
            "coding": [
              {
                "system": "http://www.radlex.org",
                "code": "RID1243",
                "display": "Thorax"
              }
            ]
          }
        ],
        "subject": {
          "reference": "Patient/SUfferer"
        },
        "requester": {
          "reference": "PractitionerRole/ORderplacerHappyDoctors"
        },
        "performer": [
          {
            "reference": "PractitionerRole/ORderfillerHappyHospital"
          }
        ],
        "reasonCode": [
          {
            "text": "Diagnostic Question"
          }
        ],
        "reasonReference": [
          {
            "reference": "Condition/PrimaryDiagnosis"
          }
        ],
        "insurance": [
          {
            "reference": "Coverage/CoverageKVG"
          }
        ],
        "supportingInfo": [
          {
            "reference": "Observation/BodyHeight"
          },
          {
            "reference": "Observation/BodyWeight"
          },
          {
            "reference": "Condition/SecondaryDiagnosis1"
          },
          {
            "reference": "Condition/SecondaryDiagnosis2"
          },
          {
            "reference": "Condition/CaveatBloodCoagulation"
          },
          {
            "reference": "Condition/CaveatRenalInsufficiency"
          },
          {
            "reference": "Condition/CaveatBodyPiercing"
          },
          {
            "reference": "Condition/CaveatDeviceCardiacPacemaker"
          },
          {
            "reference": "Condition/CaveatDrugPrescriptionMetformin"
          },
          {
            "reference": "Media/MediaRx"
          }
        ],
        "bodySite": [
          {
            "coding": [
              {
                "system": "http://www.radlex.org",
                "code": "RID2468",
                "display": "Chest wall"
              }
            ]
          }
        ],
        "note": [
          {
            "text": "Bemerkung/Kommentar"
          }
        ]
      }
    },
    {
      "fullUrl": "http://example.com/fhir/Patient/SUfferer",
      "resource": {
        "resourceType": "Patient",
        "id": "SUfferer",
        "meta": {
          "profile": [
            "http://fhir.ch/ig/ch-core/StructureDefinition/ch-core-patient"
          ]
        },
        "text": {
          "status": "generated",
          "div": "<div xmlns=\"http://www.w3.org/1999/xhtml\"><p><b>Generated Narrative</b></p><div style=\"display: inline-block; background-color: #d9e0e7; padding: 6px; margin: 4px; border: 1px solid #8da1b4; border-radius: 5px; line-height: 60%\"><p style=\"margin-bottom: 0px\">Resource \"SUfferer\" </p><p style=\"margin-bottom: 0px\">Profile: <a href=\"http://fhir.ch/ig/ch-core/StructureDefinition-ch-core-patient.html\">CH Core Patient Profile</a></p></div><p><b>name</b>: Susanna Ufferer (OFFICIAL), Leidend (MAIDEN)</p><p><b>telecom</b>: <a href=\"tel:+41799797979\">+41 79 979 79 79</a>, <a href=\"mailto:susanna@ufferer.ch\">susanna@ufferer.ch</a></p><p><b>gender</b>: female</p><p><b>birthDate</b>: 1970-03-14</p><p><b>address</b>: Musterweg 6a Zürich 8000 Schweiz (HOME)</p></div>"
        },
        "name": [
          {
            "use": "official",
            "family": "Ufferer",
            "_family": {
              "extension": [
                {
                  "url": "http://fhir.ch/ig/ch-core/StructureDefinition/ch-ext-ech-11-name",
                  "valueCode": "officialName"
                }
              ]
            },
            "given": [
              "Susanna"
            ],
            "_given": [
              {
                "extension": [
                  {
                    "url": "http://fhir.ch/ig/ch-core/StructureDefinition/ch-ext-ech-11-firstname",
                    "valueCode": "officialFirstName"
                  }
                ]
              }
            ]
          },
          {
            "use": "maiden",
            "family": "Leidend",
            "_family": {
              "extension": [
                {
                  "url": "http://fhir.ch/ig/ch-core/StructureDefinition/ch-ext-ech-11-name",
                  "valueCode": "originalName"
                }
              ]
            }
          }
        ],
        "telecom": [
          {
            "system": "phone",
            "value": "+41 79 979 79 79"
          },
          {
            "system": "email",
            "value": "susanna@ufferer.ch"
          }
        ],
        "gender": "female",
        "birthDate": "1970-03-14",
        "address": [
          {
            "use": "home",
            "line": [
              "Musterweg",
              "6a"
            ],
            "city": "Zürich",
            "postalCode": "8000",
            "country": "Schweiz"
          }
        ]
      }
    },
    {
      "fullUrl": "http://example.com/fhir/Patient/SUffererCopyReceiver",
      "resource": {
        "resourceType": "Patient",
        "id": "SUffererCopyReceiver",
        "meta": {
          "profile": [
            "http://fhir.ch/ig/ch-core/StructureDefinition/ch-core-patient"
          ]
        },
        "text": {
          "status": "generated",
          "div": "<div xmlns=\"http://www.w3.org/1999/xhtml\"><p><b>Generated Narrative</b></p><div style=\"display: inline-block; background-color: #d9e0e7; padding: 6px; margin: 4px; border: 1px solid #8da1b4; border-radius: 5px; line-height: 60%\"><p style=\"margin-bottom: 0px\">Resource \"SUffererCopyReceiver\" </p><p style=\"margin-bottom: 0px\">Profile: <a href=\"http://fhir.ch/ig/ch-core/StructureDefinition-ch-core-patient.html\">CH Core Patient Profile</a></p></div><p><b>name</b>: Susanna Ufferer </p><p><b>telecom</b>: <a href=\"tel:+41799797979\">+41 79 979 79 79</a>, <a href=\"mailto:susanna@ufferer.ch\">susanna@ufferer.ch</a></p><p><b>address</b>: Musterweg 6a Zürich 8000 Schweiz (HOME)</p></div>"
        },
        "name": [
          {
            "family": "Ufferer",
            "given": [
              "Susanna"
            ]
          }
        ],
        "telecom": [
          {
            "system": "phone",
            "value": "+41 79 979 79 79"
          },
          {
            "system": "email",
            "value": "susanna@ufferer.ch"
          }
        ],
        "address": [
          {
            "use": "home",
            "line": [
              "Musterweg 6a"
            ],
            "city": "Zürich",
            "postalCode": "8000",
            "country": "Schweiz"
          }
        ]
      }
    },
    {
      "fullUrl": "http://example.com/fhir/PractitionerRole/DAtaentererHappyDoctors",
      "resource": {
        "resourceType": "PractitionerRole",
        "id": "DAtaentererHappyDoctors",
        "meta": {
          "profile": [
            "http://fhir.ch/ig/ch-core/StructureDefinition/ch-core-practitionerrole"
          ]
        },
        "text": {
          "status": "generated",
          "div": "<div xmlns=\"http://www.w3.org/1999/xhtml\"><p><b>Generated Narrative</b></p><div style=\"display: inline-block; background-color: #d9e0e7; padding: 6px; margin: 4px; border: 1px solid #8da1b4; border-radius: 5px; line-height: 60%\"><p style=\"margin-bottom: 0px\">Resource \"DAtaentererHappyDoctors\" </p><p style=\"margin-bottom: 0px\">Profile: <a href=\"http://fhir.ch/ig/ch-core/StructureDefinition-ch-core-practitionerrole.html\">CH Core Practitioner Role Profile</a></p></div><p><b>practitioner</b>: <a href=\"#Practitioner_DAtaenterer\">See above (Practitioner/DAtaenterer)</a></p><p><b>organization</b>: <a href=\"#Organization_HappyDoctors\">See above (Organization/HappyDoctors)</a></p></div>"
        },
        "practitioner": {
          "reference": "Practitioner/DAtaenterer"
        },
        "organization": {
          "reference": "Organization/HappyDoctors"
        }
      }
    },
    {
      "fullUrl": "http://example.com/fhir/Practitioner/DAtaenterer",
      "resource": {
        "resourceType": "Practitioner",
        "id": "DAtaenterer",
        "meta": {
          "profile": [
            "http://fhir.ch/ig/ch-core/StructureDefinition/ch-core-practitioner"
          ]
        },
        "text": {
          "status": "generated",
          "div": "<div xmlns=\"http://www.w3.org/1999/xhtml\"><p><b>Generated Narrative</b></p><div style=\"display: inline-block; background-color: #d9e0e7; padding: 6px; margin: 4px; border: 1px solid #8da1b4; border-radius: 5px; line-height: 60%\"><p style=\"margin-bottom: 0px\">Resource \"DAtaenterer\" </p><p style=\"margin-bottom: 0px\">Profile: <a href=\"http://fhir.ch/ig/ch-core/StructureDefinition-ch-core-practitioner.html\">CH Core Practitioner Profile</a></p></div><p><b>name</b>: Doris Ataenterer </p><p><b>telecom</b>: <a href=\"tel:+41443332211\">+41 44 333 22 11</a>, <a href=\"mailto:d.ataenterer@happydoctors.ch\">d.ataenterer@happydoctors.ch</a></p></div>"
        },
        "name": [
          {
            "family": "Ataenterer",
            "given": [
              "Doris"
            ]
          }
        ],
        "telecom": [
          {
            "system": "phone",
            "value": "+41 44 333 22 11"
          },
          {
            "system": "email",
            "value": "d.ataenterer@happydoctors.ch"
          }
        ]
      }
    },
    {
      "fullUrl": "http://example.com/fhir/PractitionerRole/ORderplacerHappyDoctors",
      "resource": {
        "resourceType": "PractitionerRole",
        "id": "ORderplacerHappyDoctors",
        "meta": {
          "profile": [
            "http://fhir.ch/ig/ch-core/StructureDefinition/ch-core-practitionerrole"
          ]
        },
        "text": {
          "status": "generated",
          "div": "<div xmlns=\"http://www.w3.org/1999/xhtml\"><p><b>Generated Narrative</b></p><div style=\"display: inline-block; background-color: #d9e0e7; padding: 6px; margin: 4px; border: 1px solid #8da1b4; border-radius: 5px; line-height: 60%\"><p style=\"margin-bottom: 0px\">Resource \"ORderplacerHappyDoctors\" </p><p style=\"margin-bottom: 0px\">Profile: <a href=\"http://fhir.ch/ig/ch-core/StructureDefinition-ch-core-practitionerrole.html\">CH Core Practitioner Role Profile</a></p></div><p><b>practitioner</b>: <a href=\"#Practitioner_ORderplacer\">See above (Practitioner/ORderplacer)</a></p><p><b>organization</b>: <a href=\"#Organization_HappyDoctors\">See above (Organization/HappyDoctors)</a></p></div>"
        },
        "practitioner": {
          "reference": "Practitioner/ORderplacer"
        },
        "organization": {
          "reference": "Organization/HappyDoctors"
        }
      }
    },
    {
      "fullUrl": "http://example.com/fhir/Practitioner/ORderplacer",
      "resource": {
        "resourceType": "Practitioner",
        "id": "ORderplacer",
        "meta": {
          "profile": [
            "http://fhir.ch/ig/ch-core/StructureDefinition/ch-core-practitioner"
          ]
        },
        "text": {
          "status": "generated",
          "div": "<div xmlns=\"http://www.w3.org/1999/xhtml\"><p><b>Generated Narrative</b></p><div style=\"display: inline-block; background-color: #d9e0e7; padding: 6px; margin: 4px; border: 1px solid #8da1b4; border-radius: 5px; line-height: 60%\"><p style=\"margin-bottom: 0px\">Resource \"ORderplacer\" </p><p style=\"margin-bottom: 0px\">Profile: <a href=\"http://fhir.ch/ig/ch-core/StructureDefinition-ch-core-practitioner.html\">CH Core Practitioner Profile</a></p></div><p><b>identifier</b>: id: 7601000034321</p><p><b>name</b>: Ottilie Rderplacer (OFFICIAL)</p><p><b>telecom</b>: <a href=\"tel:+41443332211\">+41 44 333 22 11</a>, <a href=\"mailto:o.rderplacer@happydoctors.ch\">o.rderplacer@happydoctors.ch</a></p></div>"
        },
        "identifier": [
          {
            "system": "urn:oid:2.51.1.3",
            "value": "7601000034321"
          }
        ],
        "name": [
          {
            "use": "official",
            "family": "Rderplacer",
            "given": [
              "Ottilie"
            ],
            "prefix": [
              "Dr. med."
            ],
            "_prefix": [
              {
                "extension": [
                  {
                    "url": "http://hl7.org/fhir/StructureDefinition/iso21090-EN-qualifier",
                    "valueCode": "AC"
                  }
                ]
              }
            ]
          }
        ],
        "telecom": [
          {
            "system": "phone",
            "value": "+41 44 333 22 11"
          },
          {
            "system": "email",
            "value": "o.rderplacer@happydoctors.ch"
          }
        ]
      }
    },
    {
      "fullUrl": "http://example.com/fhir/PractitionerRole/RadiologyDepartmentHappyHospital",
      "resource": {
        "resourceType": "PractitionerRole",
        "id": "RadiologyDepartmentHappyHospital",
        "meta": {
          "profile": [
            "http://fhir.ch/ig/ch-core/StructureDefinition/ch-core-practitionerrole"
          ]
        },
        "text": {
          "status": "generated",
          "div": "<div xmlns=\"http://www.w3.org/1999/xhtml\"><p><b>Generated Narrative</b></p><div style=\"display: inline-block; background-color: #d9e0e7; padding: 6px; margin: 4px; border: 1px solid #8da1b4; border-radius: 5px; line-height: 60%\"><p style=\"margin-bottom: 0px\">Resource \"RadiologyDepartmentHappyHospital\" </p><p style=\"margin-bottom: 0px\">Profile: <a href=\"http://fhir.ch/ig/ch-core/StructureDefinition-ch-core-practitionerrole.html\">CH Core Practitioner Role Profile</a></p></div><p><b>organization</b>: <a href=\"#Organization_HappyHospital\">See above (Organization/HappyHospital)</a></p></div>"
        },
        "organization": {
          "reference": "Organization/HappyHospital"
        }
      }
    },
    {
      "fullUrl": "http://example.com/fhir/Organization/HappyDoctors",
      "resource": {
        "resourceType": "Organization",
        "id": "HappyDoctors",
        "meta": {
          "profile": [
            "http://fhir.ch/ig/ch-core/StructureDefinition/ch-core-organization"
          ]
        },
        "text": {
          "status": "generated",
          "div": "<div xmlns=\"http://www.w3.org/1999/xhtml\"><p><b>Generated Narrative</b></p><div style=\"display: inline-block; background-color: #d9e0e7; padding: 6px; margin: 4px; border: 1px solid #8da1b4; border-radius: 5px; line-height: 60%\"><p style=\"margin-bottom: 0px\">Resource \"HappyDoctors\" </p><p style=\"margin-bottom: 0px\">Profile: <a href=\"http://fhir.ch/ig/ch-core/StructureDefinition-ch-core-organization.html\">CH Core Organization Profile</a></p></div><p><b>name</b>: Praxis Happy Doctors</p><p><b>address</b>: Kantonsstrasse 14 Postfach 14 Zürich 8000 Schweiz </p></div>"
        },
        "name": "Praxis Happy Doctors",
        "address": [
          {
            "line": [
              "Kantonsstrasse 14",
              "Postfach 14"
            ],
            "city": "Zürich",
            "postalCode": "8000",
            "country": "Schweiz"
          }
        ]
      }
    },
    {
      "fullUrl": "http://example.com/fhir/Organization/HappyHospital",
      "resource": {
        "resourceType": "Organization",
        "id": "HappyHospital",
        "meta": {
          "profile": [
            "http://fhir.ch/ig/ch-core/StructureDefinition/ch-core-organization"
          ]
        },
        "text": {
          "status": "generated",
          "div": "<div xmlns=\"http://www.w3.org/1999/xhtml\"><p><b>Generated Narrative</b></p><div style=\"display: inline-block; background-color: #d9e0e7; padding: 6px; margin: 4px; border: 1px solid #8da1b4; border-radius: 5px; line-height: 60%\"><p style=\"margin-bottom: 0px\">Resource \"HappyHospital\" </p><p style=\"margin-bottom: 0px\">Profile: <a href=\"http://fhir.ch/ig/ch-core/StructureDefinition-ch-core-organization.html\">CH Core Organization Profile</a></p></div><p><b>name</b>: Klinik Happy Hospital</p><p><b>address</b>: Seestrasse 133 Haus C Zürich 8000 Schweiz </p></div>"
        },
        "name": "Klinik Happy Hospital",
        "address": [
          {
            "line": [
              "Seestrasse 133",
              "Haus C"
            ],
            "city": "Zürich",
            "postalCode": "8000",
            "country": "Schweiz"
          }
        ]
      }
    },
    {
      "fullUrl": "http://example.com/fhir/PractitionerRole/ORderfillerHappyHospital",
      "resource": {
        "resourceType": "PractitionerRole",
        "id": "ORderfillerHappyHospital",
        "meta": {
          "profile": [
            "http://fhir.ch/ig/ch-core/StructureDefinition/ch-core-practitionerrole"
          ]
        },
        "text": {
          "status": "generated",
          "div": "<div xmlns=\"http://www.w3.org/1999/xhtml\"><p><b>Generated Narrative</b></p><div style=\"display: inline-block; background-color: #d9e0e7; padding: 6px; margin: 4px; border: 1px solid #8da1b4; border-radius: 5px; line-height: 60%\"><p style=\"margin-bottom: 0px\">Resource \"ORderfillerHappyHospital\" </p><p style=\"margin-bottom: 0px\">Profile: <a href=\"http://fhir.ch/ig/ch-core/StructureDefinition-ch-core-practitionerrole.html\">CH Core Practitioner Role Profile</a></p></div><p><b>practitioner</b>: <a href=\"#Practitioner_ORderfiller\">See above (Practitioner/ORderfiller)</a></p></div>"
        },
        "practitioner": {
          "reference": "Practitioner/ORderfiller"
        }
      }
    },
    {
      "fullUrl": "http://example.com/fhir/Practitioner/ORderfiller",
      "resource": {
        "resourceType": "Practitioner",
        "id": "ORderfiller",
        "meta": {
          "profile": [
            "http://fhir.ch/ig/ch-core/StructureDefinition/ch-core-practitioner"
          ]
        },
        "text": {
          "status": "generated",
          "div": "<div xmlns=\"http://www.w3.org/1999/xhtml\"><p><b>Generated Narrative</b></p><div style=\"display: inline-block; background-color: #d9e0e7; padding: 6px; margin: 4px; border: 1px solid #8da1b4; border-radius: 5px; line-height: 60%\"><p style=\"margin-bottom: 0px\">Resource \"ORderfiller\" </p><p style=\"margin-bottom: 0px\">Profile: <a href=\"http://fhir.ch/ig/ch-core/StructureDefinition-ch-core-practitioner.html\">CH Core Practitioner Profile</a></p></div><p><b>name</b>: Otto Rderfiller (OFFICIAL)</p></div>"
        },
        "name": [
          {
            "use": "official",
            "family": "Rderfiller",
            "given": [
              "Otto"
            ]
          }
        ]
      }
    },
    {
      "fullUrl": "http://example.com/fhir/Condition/PrimaryDiagnosis",
      "resource": {
        "resourceType": "Condition",
        "id": "PrimaryDiagnosis",
        "meta": {
          "profile": [
            "http://fhir.ch/ig/ch-rad-order/StructureDefinition/ch-rad-order-diagnosis-condition"
          ]
        },
        "text": {
          "status": "generated",
          "div": "<div xmlns=\"http://www.w3.org/1999/xhtml\"><p><b>Generated Narrative</b></p><div style=\"display: inline-block; background-color: #d9e0e7; padding: 6px; margin: 4px; border: 1px solid #8da1b4; border-radius: 5px; line-height: 60%\"><p style=\"margin-bottom: 0px\">Resource \"PrimaryDiagnosis\" </p><p style=\"margin-bottom: 0px\">Profile: <a href=\"StructureDefinition-ch-rad-order-diagnosis-condition.html\">CH RAD-Order Diagnosis Condition</a></p></div><p><b>category</b>: Problem List Item <span style=\"background: LightGoldenRodYellow; margin: 4px; border: 1px solid khaki\"> (<a href=\"http://terminology.hl7.org/3.0.0/CodeSystem-condition-category.html\">Condition Category Codes</a>#problem-list-item)</span></p><p><b>code</b>: Primary Diagnosis <span style=\"background: LightGoldenRodYellow; margin: 4px; border: 1px solid khaki\"> ()</span></p><p><b>subject</b>: <a href=\"#Patient_SUfferer\">See above (Patient/SUfferer)</a></p></div>"
        },
        "category": [
          {
            "coding": [
              {
                "system": "http://terminology.hl7.org/CodeSystem/condition-category",
                "code": "problem-list-item",
                "display": "Problem List Item"
              }
            ]
          }
        ],
        "code": {
          "text": "Primary Diagnosis"
        },
        "subject": {
          "reference": "Patient/SUfferer"
        }
      }
    },
    {
      "fullUrl": "http://example.com/fhir/Observation/BodyHeight",
      "resource": {
        "resourceType": "Observation",
        "id": "BodyHeight",
        "meta": {
          "profile": [
            "http://fhir.ch/ig/ch-rad-order/StructureDefinition/ch-rad-order-bodyheight-observation"
          ]
        },
        "text": {
          "status": "generated",
          "div": "<div xmlns=\"http://www.w3.org/1999/xhtml\"><p><b>Generated Narrative</b></p><div style=\"display: inline-block; background-color: #d9e0e7; padding: 6px; margin: 4px; border: 1px solid #8da1b4; border-radius: 5px; line-height: 60%\"><p style=\"margin-bottom: 0px\">Resource \"BodyHeight\" </p><p style=\"margin-bottom: 0px\">Profile: <a href=\"StructureDefinition-ch-rad-order-bodyheight-observation.html\">CH RAD-Order Body Height Observation</a></p></div><p><b>status</b>: final</p><p><b>category</b>: Vital Signs <span style=\"background: LightGoldenRodYellow; margin: 4px; border: 1px solid khaki\"> (<a href=\"http://terminology.hl7.org/3.0.0/CodeSystem-observation-category.html\">Observation Category Codes</a>#vital-signs)</span></p><p><b>code</b>: Body height <span style=\"background: LightGoldenRodYellow; margin: 4px; border: 1px solid khaki\"> (<a href=\"https://loinc.org/\">LOINC</a>#8302-2)</span></p><p><b>subject</b>: <a href=\"#Patient_SUfferer\">See above (Patient/SUfferer)</a></p><p><b>effective</b>: 2019-04-01T10:10:00Z</p><p><b>value</b>: 176 cm<span style=\"background: LightGoldenRodYellow\"> (Details: UCUM code cm = 'cm')</span></p></div>"
        },
        "status": "final",
        "category": [
          {
            "coding": [
              {
                "system": "http://terminology.hl7.org/CodeSystem/observation-category",
                "code": "vital-signs"
              }
            ]
          }
        ],
        "code": {
          "coding": [
            {
              "system": "http://loinc.org",
              "code": "8302-2",
              "display": "Body height"
            }
          ]
        },
        "subject": {
          "reference": "Patient/SUfferer"
        },
        "effectiveDateTime": "2019-04-01T10:10:00.000+00:00",
        "valueQuantity": {
          "value": 176,
          "unit": "cm",
          "system": "http://unitsofmeasure.org",
          "code": "cm"
        }
      }
    },
    {
      "fullUrl": "http://example.com/fhir/Observation/BodyWeight",
      "resource": {
        "resourceType": "Observation",
        "id": "BodyWeight",
        "meta": {
          "profile": [
            "http://fhir.ch/ig/ch-rad-order/StructureDefinition/ch-rad-order-bodyweight-observation"
          ]
        },
        "text": {
          "status": "generated",
          "div": "<div xmlns=\"http://www.w3.org/1999/xhtml\"><p><b>Generated Narrative</b></p><div style=\"display: inline-block; background-color: #d9e0e7; padding: 6px; margin: 4px; border: 1px solid #8da1b4; border-radius: 5px; line-height: 60%\"><p style=\"margin-bottom: 0px\">Resource \"BodyWeight\" </p><p style=\"margin-bottom: 0px\">Profile: <a href=\"StructureDefinition-ch-rad-order-bodyweight-observation.html\">CH RAD-Order Body Weight Observation</a></p></div><p><b>status</b>: final</p><p><b>category</b>: Vital Signs <span style=\"background: LightGoldenRodYellow; margin: 4px; border: 1px solid khaki\"> (<a href=\"http://terminology.hl7.org/3.0.0/CodeSystem-observation-category.html\">Observation Category Codes</a>#vital-signs)</span></p><p><b>code</b>: Body weight <span style=\"background: LightGoldenRodYellow; margin: 4px; border: 1px solid khaki\"> (<a href=\"https://loinc.org/\">LOINC</a>#29463-7)</span></p><p><b>subject</b>: <a href=\"#Patient_SUfferer\">See above (Patient/SUfferer)</a></p><p><b>effective</b>: 2019-04-01T10:10:00Z</p><p><b>value</b>: 99 kg<span style=\"background: LightGoldenRodYellow\"> (Details: UCUM code kg = 'kg')</span></p></div>"
        },
        "status": "final",
        "category": [
          {
            "coding": [
              {
                "system": "http://terminology.hl7.org/CodeSystem/observation-category",
                "code": "vital-signs"
              }
            ]
          }
        ],
        "code": {
          "coding": [
            {
              "system": "http://loinc.org",
              "code": "29463-7",
              "display": "Body weight"
            }
          ]
        },
        "subject": {
          "reference": "Patient/SUfferer"
        },
        "effectiveDateTime": "2019-04-01T10:10:00.000+00:00",
        "valueQuantity": {
          "value": 99,
          "unit": "kg",
          "system": "http://unitsofmeasure.org",
          "code": "kg"
        }
      }
    },
    {
      "fullUrl": "http://example.com/fhir/Condition/SecondaryDiagnosis1",
      "resource": {
        "resourceType": "Condition",
        "id": "SecondaryDiagnosis1",
        "meta": {
          "profile": [
            "http://fhir.ch/ig/ch-rad-order/StructureDefinition/ch-rad-order-diagnosis-condition"
          ]
        },
        "text": {
          "status": "generated",
          "div": "<div xmlns=\"http://www.w3.org/1999/xhtml\"><p><b>Generated Narrative</b></p><div style=\"display: inline-block; background-color: #d9e0e7; padding: 6px; margin: 4px; border: 1px solid #8da1b4; border-radius: 5px; line-height: 60%\"><p style=\"margin-bottom: 0px\">Resource \"SecondaryDiagnosis1\" </p><p style=\"margin-bottom: 0px\">Profile: <a href=\"StructureDefinition-ch-rad-order-diagnosis-condition.html\">CH RAD-Order Diagnosis Condition</a></p></div><p><b>category</b>: Problem List Item <span style=\"background: LightGoldenRodYellow; margin: 4px; border: 1px solid khaki\"> (<a href=\"http://terminology.hl7.org/3.0.0/CodeSystem-condition-category.html\">Condition Category Codes</a>#problem-list-item)</span></p><p><b>code</b>: Secondary Diagnosis 1 <span style=\"background: LightGoldenRodYellow; margin: 4px; border: 1px solid khaki\"> ()</span></p><p><b>subject</b>: <a href=\"#Patient_SUfferer\">See above (Patient/SUfferer)</a></p></div>"
        },
        "category": [
          {
            "coding": [
              {
                "system": "http://terminology.hl7.org/CodeSystem/condition-category",
                "code": "problem-list-item",
                "display": "Problem List Item"
              }
            ]
          }
        ],
        "code": {
          "text": "Secondary Diagnosis 1"
        },
        "subject": {
          "reference": "Patient/SUfferer"
        }
      }
    },
    {
      "fullUrl": "http://example.com/fhir/Condition/SecondaryDiagnosis2",
      "resource": {
        "resourceType": "Condition",
        "id": "SecondaryDiagnosis2",
        "meta": {
          "profile": [
            "http://fhir.ch/ig/ch-rad-order/StructureDefinition/ch-rad-order-diagnosis-condition"
          ]
        },
        "text": {
          "status": "generated",
          "div": "<div xmlns=\"http://www.w3.org/1999/xhtml\"><p><b>Generated Narrative</b></p><div style=\"display: inline-block; background-color: #d9e0e7; padding: 6px; margin: 4px; border: 1px solid #8da1b4; border-radius: 5px; line-height: 60%\"><p style=\"margin-bottom: 0px\">Resource \"SecondaryDiagnosis2\" </p><p style=\"margin-bottom: 0px\">Profile: <a href=\"StructureDefinition-ch-rad-order-diagnosis-condition.html\">CH RAD-Order Diagnosis Condition</a></p></div><p><b>category</b>: Problem List Item <span style=\"background: LightGoldenRodYellow; margin: 4px; border: 1px solid khaki\"> (<a href=\"http://terminology.hl7.org/3.0.0/CodeSystem-condition-category.html\">Condition Category Codes</a>#problem-list-item)</span></p><p><b>code</b>: Secondary Diagnosis 2 <span style=\"background: LightGoldenRodYellow; margin: 4px; border: 1px solid khaki\"> ()</span></p><p><b>subject</b>: <a href=\"#Patient_SUfferer\">See above (Patient/SUfferer)</a></p></div>"
        },
        "category": [
          {
            "coding": [
              {
                "system": "http://terminology.hl7.org/CodeSystem/condition-category",
                "code": "problem-list-item",
                "display": "Problem List Item"
              }
            ]
          }
        ],
        "code": {
          "text": "Secondary Diagnosis 2"
        },
        "subject": {
          "reference": "Patient/SUfferer"
        }
      }
    },
    {
      "fullUrl": "http://example.com/fhir/Coverage/CoverageKVG",
      "resource": {
        "resourceType": "Coverage",
        "id": "CoverageKVG",
        "meta": {
          "profile": [
            "http://fhir.ch/ig/ch-orf/StructureDefinition/ch-orf-coverage"
          ]
        },
        "text": {
          "status": "generated",
          "div": "<div xmlns=\"http://www.w3.org/1999/xhtml\"><p><b>Generated Narrative</b></p><div style=\"display: inline-block; background-color: #d9e0e7; padding: 6px; margin: 4px; border: 1px solid #8da1b4; border-radius: 5px; line-height: 60%\"><p style=\"margin-bottom: 0px\">Resource \"CoverageKVG\" </p><p style=\"margin-bottom: 0px\">Profile: <a href=\"http://fhir.ch/ig/ch-orf/StructureDefinition-ch-orf-coverage.html\">CH ORF Coverage</a></p></div><p><b>identifier</b>: Insurance Card Number: 80756015090002647590</p><p><b>status</b>: active</p><p><b>type</b>: According to KVG <span style=\"background: LightGoldenRodYellow; margin: 4px; border: 1px solid khaki\"> (<a href=\"http://fhir.ch/ig/ch-orf/CodeSystem-ch-orf-cs-coveragetype.html\">Coverage Type</a>#KVG)</span></p><p><b>beneficiary</b>: <a href=\"#Patient_SUfferer\">See above (Patient/SUfferer)</a></p><p><b>payor</b>: <a name=\"Sanitas\"> </a></p><blockquote><div style=\"display: inline-block; background-color: #d9e0e7; padding: 6px; margin: 4px; border: 1px solid #8da1b4; border-radius: 5px; line-height: 60%\"><p style=\"margin-bottom: 0px\">Resource \"Sanitas\" </p><p style=\"margin-bottom: 0px\">Profile: <a href=\"http://fhir.ch/ig/ch-core/StructureDefinition-ch-core-organization.html\">CH Core Organization Profile</a></p></div><p><b>name</b>: Sanitas</p></blockquote></div>"
        },
        "contained": [
          {
            "resourceType": "Organization",
            "id": "Sanitas",
            "meta": {
              "profile": [
                "http://fhir.ch/ig/ch-core/StructureDefinition/ch-core-organization"
              ]
            },
            "name": "Sanitas"
          }
        ],
        "identifier": [
          {
            "type": {
              "coding": [
                {
                  "system": "http://fhir.ch/ig/ch-orf/CodeSystem/ch-orf-cs-coverageidentifiertype",
                  "code": "VeKa"
                }
              ]
            },
            "value": "80756015090002647590"
          }
        ],
        "status": "active",
        "type": {
          "coding": [
            {
              "system": "http://fhir.ch/ig/ch-orf/CodeSystem/ch-orf-cs-coveragetype",
              "code": "KVG",
              "display": "According to KVG"
            }
          ]
        },
        "beneficiary": {
          "reference": "Patient/SUfferer"
        },
        "payor": [
          {
            "reference": "#Sanitas"
          }
        ]
      }
    },
    {
      "fullUrl": "http://example.com/fhir/Condition/CaveatBloodCoagulation",
      "resource": {
        "resourceType": "Condition",
        "id": "CaveatBloodCoagulation",
        "meta": {
          "profile": [
            "http://fhir.ch/ig/ch-rad-order/StructureDefinition/ch-rad-order-caveat-condition"
          ]
        },
        "text": {
          "status": "extensions",
          "div": "<div xmlns=\"http://www.w3.org/1999/xhtml\"><p><b>Generated Narrative</b></p><div style=\"display: inline-block; background-color: #d9e0e7; padding: 6px; margin: 4px; border: 1px solid #8da1b4; border-radius: 5px; line-height: 60%\"><p style=\"margin-bottom: 0px\">Resource \"CaveatBloodCoagulation\" </p><p style=\"margin-bottom: 0px\">Profile: <a href=\"StructureDefinition-ch-rad-order-caveat-condition.html\">CH RAD-Order Caveat Condition</a></p></div><p><b>CH RAD-Order Caveat Type</b>: Blood coagulation disorder (disorder) (Details: SNOMED CT code 64779008 = 'Blood coagulation disorder', stated as 'Blood coagulation disorder (disorder)')</p><p><b>CH RAD-Order Caveat Type</b>: Present (qualifier value) (Details: SNOMED CT code 52101004 = 'Present', stated as 'Present (qualifier value)')</p><p><b>category</b>: Problem List Item <span style=\"background: LightGoldenRodYellow; margin: 4px; border: 1px solid khaki\"> (<a href=\"http://terminology.hl7.org/3.0.0/CodeSystem-condition-category.html\">Condition Category Codes</a>#problem-list-item)</span></p><p><b>code</b>: Blood coagulation disorder (disorder) <span style=\"background: LightGoldenRodYellow; margin: 4px; border: 1px solid khaki\"> (<a href=\"https://browser.ihtsdotools.org/\">SNOMED CT</a>#64779008)</span></p><p><b>subject</b>: <a href=\"#Patient_SUfferer\">See above (Patient/SUfferer)</a></p><blockquote><p><b>evidence</b></p><p><b>detail</b>: <a href=\"#Observation_CaveatBloodCoagulationINR\">See above (Observation/CaveatBloodCoagulationINR)</a></p></blockquote><blockquote><p><b>evidence</b></p><p><b>detail</b>: <a href=\"#Observation_CaveatBloodCoagulationPlatelets\">See above (Observation/CaveatBloodCoagulationPlatelets)</a></p></blockquote></div>"
        },
        "extension": [
          {
            "url": "http://fhir.ch/ig/ch-rad-order/StructureDefinition/ch-rad-order-caveat-type",
            "valueCoding": {
              "system": "http://snomed.info/sct",
              "code": "64779008",
              "display": "Blood coagulation disorder (disorder)"
            }
          },
          {
            "url": "http://fhir.ch/ig/ch-rad-order/StructureDefinition/ch-rad-order-qualifier-value",
            "valueCoding": {
              "system": "http://snomed.info/sct",
              "code": "52101004",
              "display": "Present (qualifier value)"
            }
          }
        ],
        "category": [
          {
            "coding": [
              {
                "system": "http://terminology.hl7.org/CodeSystem/condition-category",
                "code": "problem-list-item",
                "display": "Problem List Item"
              }
            ]
          }
        ],
        "code": {
          "coding": [
            {
              "system": "http://snomed.info/sct",
              "code": "64779008",
              "display": "Blood coagulation disorder (disorder)"
            }
          ]
        },
        "subject": {
          "reference": "Patient/SUfferer"
        },
        "evidence": [
          {
            "detail": [
              {
                "reference": "Observation/CaveatBloodCoagulationINR"
              }
            ]
          },
          {
            "detail": [
              {
                "reference": "Observation/CaveatBloodCoagulationPlatelets"
              }
            ]
          }
        ]
      }
    },
    {
      "fullUrl": "http://example.com/fhir/Observation/CaveatBloodCoagulationINR",
      "resource": {
        "resourceType": "Observation",
        "id": "CaveatBloodCoagulationINR",
        "meta": {
          "profile": [
            "http://fhir.ch/ig/ch-rad-order/StructureDefinition/ch-rad-order-INR-observation"
          ]
        },
        "text": {
          "status": "generated",
          "div": "<div xmlns=\"http://www.w3.org/1999/xhtml\"><p><b>Generated Narrative</b></p><div style=\"display: inline-block; background-color: #d9e0e7; padding: 6px; margin: 4px; border: 1px solid #8da1b4; border-radius: 5px; line-height: 60%\"><p style=\"margin-bottom: 0px\">Resource \"CaveatBloodCoagulationINR\" </p><p style=\"margin-bottom: 0px\">Profile: <a href=\"StructureDefinition-ch-rad-order-INR-observation.html\">CH RAD-Order INR Observation</a></p></div><p><b>status</b>: final</p><p><b>code</b>: INR in Blood by Coagulation assay <span style=\"background: LightGoldenRodYellow; margin: 4px; border: 1px solid khaki\"> (<a href=\"https://loinc.org/\">LOINC</a>#34714-6)</span></p><p><b>subject</b>: <a href=\"#Patient_SUfferer\">See above (Patient/SUfferer)</a></p><p><b>effective</b>: 2019-04-01T10:10:00Z</p><p><b>value</b>: 2.3 INR<span style=\"background: LightGoldenRodYellow\"> (Details: UCUM code {INR} = '{INR}')</span></p></div>"
        },
        "status": "final",
        "code": {
          "coding": [
            {
              "system": "http://loinc.org",
              "code": "34714-6",
              "display": "INR in Blood by Coagulation assay"
            }
          ]
        },
        "subject": {
          "reference": "Patient/SUfferer"
        },
        "effectiveDateTime": "2019-04-01T10:10:00.000+00:00",
        "valueQuantity": {
          "value": 2.3,
          "unit": "INR",
          "system": "http://unitsofmeasure.org",
          "code": "{INR}"
        }
      }
    },
    {
      "fullUrl": "http://example.com/fhir/Observation/CaveatBloodCoagulationPlatelets",
      "resource": {
        "resourceType": "Observation",
        "id": "CaveatBloodCoagulationPlatelets",
        "meta": {
          "profile": [
            "http://fhir.ch/ig/ch-rad-order/StructureDefinition/ch-rad-order-platelets-observation"
          ]
        },
        "text": {
          "status": "generated",
          "div": "<div xmlns=\"http://www.w3.org/1999/xhtml\"><p><b>Generated Narrative</b></p><div style=\"display: inline-block; background-color: #d9e0e7; padding: 6px; margin: 4px; border: 1px solid #8da1b4; border-radius: 5px; line-height: 60%\"><p style=\"margin-bottom: 0px\">Resource \"CaveatBloodCoagulationPlatelets\" </p><p style=\"margin-bottom: 0px\">Profile: <a href=\"StructureDefinition-ch-rad-order-platelets-observation.html\">CH RAD-Order Platelets Observation</a></p></div><p><b>status</b>: final</p><p><b>code</b>: Platelets [#/volume] in Blood <span style=\"background: LightGoldenRodYellow; margin: 4px; border: 1px solid khaki\"> (<a href=\"https://loinc.org/\">LOINC</a>#26515-7)</span></p><p><b>subject</b>: <a href=\"#Patient_SUfferer\">See above (Patient/SUfferer)</a></p><p><b>effective</b>: 2019-04-01T10:10:00Z</p><p><b>value</b>: 150000 10^3/&mu;l<span style=\"background: LightGoldenRodYellow\"> (Details: UCUM code 10*3/uL = '10*3/uL')</span></p></div>"
        },
        "status": "final",
        "code": {
          "coding": [
            {
              "system": "http://loinc.org",
              "code": "26515-7",
              "display": "Platelets [#/volume] in Blood"
            }
          ]
        },
        "subject": {
          "reference": "Patient/SUfferer"
        },
        "effectiveDateTime": "2019-04-01T10:10:00.000+00:00",
        "valueQuantity": {
          "value": 150000,
          "unit": "10^3/μl",
          "system": "http://unitsofmeasure.org",
          "code": "10*3/uL"
        }
      }
    },
    {
      "fullUrl": "http://example.com/fhir/Condition/CaveatBodyPiercing",
      "resource": {
        "resourceType": "Condition",
        "id": "CaveatBodyPiercing",
        "meta": {
          "profile": [
            "http://fhir.ch/ig/ch-rad-order/StructureDefinition/ch-rad-order-caveat-condition"
          ]
        },
        "text": {
          "status": "extensions",
          "div": "<div xmlns=\"http://www.w3.org/1999/xhtml\"><p><b>Generated Narrative</b></p><div style=\"display: inline-block; background-color: #d9e0e7; padding: 6px; margin: 4px; border: 1px solid #8da1b4; border-radius: 5px; line-height: 60%\"><p style=\"margin-bottom: 0px\">Resource \"CaveatBodyPiercing\" </p><p style=\"margin-bottom: 0px\">Profile: <a href=\"StructureDefinition-ch-rad-order-caveat-condition.html\">CH RAD-Order Caveat Condition</a></p></div><p><b>CH RAD-Order Caveat Type</b>: Body piercing (finding) (Details: SNOMED CT code 879862001 = 'Body piercing (finding)', stated as 'Body piercing (finding)')</p><p><b>CH RAD-Order Caveat Type</b>: Present (qualifier value) (Details: SNOMED CT code 52101004 = 'Present', stated as 'Present (qualifier value)')</p><p><b>category</b>: Problem List Item <span style=\"background: LightGoldenRodYellow; margin: 4px; border: 1px solid khaki\"> (<a href=\"http://terminology.hl7.org/3.0.0/CodeSystem-condition-category.html\">Condition Category Codes</a>#problem-list-item)</span></p><p><b>code</b>: Body piercing (finding) <span style=\"background: LightGoldenRodYellow; margin: 4px; border: 1px solid khaki\"> (<a href=\"https://browser.ihtsdotools.org/\">SNOMED CT</a>#879862001)</span></p><p><b>subject</b>: <a href=\"#Patient_SUfferer\">See above (Patient/SUfferer)</a></p></div>"
        },
        "extension": [
          {
            "url": "http://fhir.ch/ig/ch-rad-order/StructureDefinition/ch-rad-order-caveat-type",
            "valueCoding": {
              "system": "http://snomed.info/sct",
              "code": "879862001",
              "display": "Body piercing (finding)"
            }
          },
          {
            "url": "http://fhir.ch/ig/ch-rad-order/StructureDefinition/ch-rad-order-qualifier-value",
            "valueCoding": {
              "system": "http://snomed.info/sct",
              "code": "52101004",
              "display": "Present (qualifier value)"
            }
          }
        ],
        "category": [
          {
            "coding": [
              {
                "system": "http://terminology.hl7.org/CodeSystem/condition-category",
                "code": "problem-list-item",
                "display": "Problem List Item"
              }
            ]
          }
        ],
        "code": {
          "coding": [
            {
              "system": "http://snomed.info/sct",
              "code": "879862001",
              "display": "Body piercing (finding)"
            }
          ]
        },
        "subject": {
          "reference": "Patient/SUfferer"
        }
      }
    },
    {
      "fullUrl": "http://example.com/fhir/Condition/CaveatRenalInsufficiency",
      "resource": {
        "resourceType": "Condition",
        "id": "CaveatRenalInsufficiency",
        "meta": {
          "profile": [
            "http://fhir.ch/ig/ch-rad-order/StructureDefinition/ch-rad-order-caveat-condition"
          ]
        },
        "text": {
          "status": "extensions",
          "div": "<div xmlns=\"http://www.w3.org/1999/xhtml\"><p><b>Generated Narrative</b></p><div style=\"display: inline-block; background-color: #d9e0e7; padding: 6px; margin: 4px; border: 1px solid #8da1b4; border-radius: 5px; line-height: 60%\"><p style=\"margin-bottom: 0px\">Resource \"CaveatRenalInsufficiency\" </p><p style=\"margin-bottom: 0px\">Profile: <a href=\"StructureDefinition-ch-rad-order-caveat-condition.html\">CH RAD-Order Caveat Condition</a></p></div><p><b>CH RAD-Order Caveat Type</b>: Renal insufficiency (disorder) (Details: SNOMED CT code 723188008 = 'Renal insufficiency (disorder)', stated as 'Renal insufficiency (disorder)')</p><p><b>CH RAD-Order Caveat Type</b>: Present (qualifier value) (Details: SNOMED CT code 52101004 = 'Present', stated as 'Present (qualifier value)')</p><p><b>category</b>: Problem List Item <span style=\"background: LightGoldenRodYellow; margin: 4px; border: 1px solid khaki\"> (<a href=\"http://terminology.hl7.org/3.0.0/CodeSystem-condition-category.html\">Condition Category Codes</a>#problem-list-item)</span></p><p><b>code</b>: Renal insufficiency (disorder) <span style=\"background: LightGoldenRodYellow; margin: 4px; border: 1px solid khaki\"> (<a href=\"https://browser.ihtsdotools.org/\">SNOMED CT</a>#723188008)</span></p><p><b>subject</b>: <a href=\"#Patient_SUfferer\">See above (Patient/SUfferer)</a></p><blockquote><p><b>evidence</b></p><p><b>detail</b>: <a href=\"#Observation_CaveatRenalInsufficiencyCreatinineClearance\">See above (Observation/CaveatRenalInsufficiencyCreatinineClearance)</a></p></blockquote><blockquote><p><b>evidence</b></p><p><b>detail</b>: <a href=\"#Observation_CaveatRenalInsufficiencyCreatinine\">See above (Observation/CaveatRenalInsufficiencyCreatinine)</a></p></blockquote></div>"
        },
        "extension": [
          {
            "url": "http://fhir.ch/ig/ch-rad-order/StructureDefinition/ch-rad-order-caveat-type",
            "valueCoding": {
              "system": "http://snomed.info/sct",
              "code": "723188008",
              "display": "Renal insufficiency (disorder)"
            }
          },
          {
            "url": "http://fhir.ch/ig/ch-rad-order/StructureDefinition/ch-rad-order-qualifier-value",
            "valueCoding": {
              "system": "http://snomed.info/sct",
              "code": "52101004",
              "display": "Present (qualifier value)"
            }
          }
        ],
        "category": [
          {
            "coding": [
              {
                "system": "http://terminology.hl7.org/CodeSystem/condition-category",
                "code": "problem-list-item",
                "display": "Problem List Item"
              }
            ]
          }
        ],
        "code": {
          "coding": [
            {
              "system": "http://snomed.info/sct",
              "code": "723188008",
              "display": "Renal insufficiency (disorder)"
            }
          ]
        },
        "subject": {
          "reference": "Patient/SUfferer"
        },
        "evidence": [
          {
            "detail": [
              {
                "reference": "Observation/CaveatRenalInsufficiencyCreatinineClearance"
              }
            ]
          },
          {
            "detail": [
              {
                "reference": "Observation/CaveatRenalInsufficiencyCreatinine"
              }
            ]
          }
        ]
      }
    },
    {
      "fullUrl": "http://example.com/fhir/Observation/CaveatRenalInsufficiencyCreatinineClearance",
      "resource": {
        "resourceType": "Observation",
        "id": "CaveatRenalInsufficiencyCreatinineClearance",
        "meta": {
          "profile": [
            "http://fhir.ch/ig/ch-rad-order/StructureDefinition/ch-rad-order-creatinineclearance-observation"
          ]
        },
        "text": {
          "status": "generated",
          "div": "<div xmlns=\"http://www.w3.org/1999/xhtml\"><p><b>Generated Narrative</b></p><div style=\"display: inline-block; background-color: #d9e0e7; padding: 6px; margin: 4px; border: 1px solid #8da1b4; border-radius: 5px; line-height: 60%\"><p style=\"margin-bottom: 0px\">Resource \"CaveatRenalInsufficiencyCreatinineClearance\" </p><p style=\"margin-bottom: 0px\">Profile: <a href=\"StructureDefinition-ch-rad-order-creatinineclearance-observation.html\">CH RAD-Order Creatinine Clearance Observation</a></p></div><p><b>status</b>: final</p><p><b>code</b>: Creatinine renal clearance in Urine and Serum or Plasma collected for unspecified duration <span style=\"background: LightGoldenRodYellow; margin: 4px; border: 1px solid khaki\"> (<a href=\"https://loinc.org/\">LOINC</a>#33558-8)</span></p><p><b>subject</b>: <a href=\"#Patient_SUfferer\">See above (Patient/SUfferer)</a></p><p><b>effective</b>: 2019-04-01T10:10:00Z</p><p><b>value</b>: 55 ml/min<span style=\"background: LightGoldenRodYellow\"> (Details: UCUM code mL/min = 'mL/min')</span></p></div>"
        },
        "status": "final",
        "code": {
          "coding": [
            {
              "system": "http://loinc.org",
              "code": "33558-8",
              "display": "Creatinine renal clearance in Urine and Serum or Plasma collected for unspecified duration"
            }
          ]
        },
        "subject": {
          "reference": "Patient/SUfferer"
        },
        "effectiveDateTime": "2019-04-01T10:10:00.000+00:00",
        "valueQuantity": {
          "value": 55,
          "unit": "ml/min",
          "system": "http://unitsofmeasure.org",
          "code": "mL/min"
        }
      }
    },
    {
      "fullUrl": "http://example.com/fhir/Observation/CaveatRenalInsufficiencyCreatinine",
      "resource": {
        "resourceType": "Observation",
        "id": "CaveatRenalInsufficiencyCreatinine",
        "meta": {
          "profile": [
            "http://fhir.ch/ig/ch-rad-order/StructureDefinition/ch-rad-order-creatinine-observation"
          ]
        },
        "text": {
          "status": "generated",
          "div": "<div xmlns=\"http://www.w3.org/1999/xhtml\"><p><b>Generated Narrative</b></p><div style=\"display: inline-block; background-color: #d9e0e7; padding: 6px; margin: 4px; border: 1px solid #8da1b4; border-radius: 5px; line-height: 60%\"><p style=\"margin-bottom: 0px\">Resource \"CaveatRenalInsufficiencyCreatinine\" </p><p style=\"margin-bottom: 0px\">Profile: <a href=\"StructureDefinition-ch-rad-order-creatinine-observation.html\">CH RAD-Order Creatinine Observation</a></p></div><p><b>status</b>: final</p><p><b>code</b>: Creatinine [Moles/volume] in Serum, Plasma or Blood <span style=\"background: LightGoldenRodYellow; margin: 4px; border: 1px solid khaki\"> (<a href=\"https://loinc.org/\">LOINC</a>#77140-2)</span></p><p><b>subject</b>: <a href=\"#Patient_SUfferer\">See above (Patient/SUfferer)</a></p><p><b>effective</b>: 2019-04-01T10:10:00Z</p><p><b>value</b>: 90 µmol/l<span style=\"background: LightGoldenRodYellow\"> (Details: UCUM code umol/L = 'umol/L')</span></p></div>"
        },
        "status": "final",
        "code": {
          "coding": [
            {
              "system": "http://loinc.org",
              "code": "77140-2",
              "display": "Creatinine [Moles/volume] in Serum, Plasma or Blood"
            }
          ]
        },
        "subject": {
          "reference": "Patient/SUfferer"
        },
        "effectiveDateTime": "2019-04-01T10:10:00.000+00:00",
        "valueQuantity": {
          "value": 90,
          "unit": "µmol/l",
          "system": "http://unitsofmeasure.org",
          "code": "umol/L"
        }
      }
    },
    {
      "fullUrl": "http://example.com/fhir/Condition/CaveatDrugPrescriptionMetformin",
      "resource": {
        "resourceType": "Condition",
        "id": "CaveatDrugPrescriptionMetformin",
        "meta": {
          "profile": [
            "http://fhir.ch/ig/ch-rad-order/StructureDefinition/ch-rad-order-caveat-condition"
          ]
        },
        "text": {
          "status": "extensions",
          "div": "<div xmlns=\"http://www.w3.org/1999/xhtml\"><p><b>Generated Narrative</b></p><div style=\"display: inline-block; background-color: #d9e0e7; padding: 6px; margin: 4px; border: 1px solid #8da1b4; border-radius: 5px; line-height: 60%\"><p style=\"margin-bottom: 0px\">Resource \"CaveatDrugPrescriptionMetformin\" </p><p style=\"margin-bottom: 0px\">Profile: <a href=\"StructureDefinition-ch-rad-order-caveat-condition.html\">CH RAD-Order Caveat Condition</a></p></div><p><b>CH RAD-Order Caveat Type</b>: Drug prescription (situation) (Details: SNOMED CT code 182817000 = 'Drug prescription', stated as 'Drug prescription (situation)')</p><p><b>CH RAD-Order Caveat Type</b>: Present (qualifier value) (Details: SNOMED CT code 52101004 = 'Present', stated as 'Present (qualifier value)')</p><p><b>category</b>: Problem List Item <span style=\"background: LightGoldenRodYellow; margin: 4px; border: 1px solid khaki\"> (<a href=\"http://terminology.hl7.org/3.0.0/CodeSystem-condition-category.html\">Condition Category Codes</a>#problem-list-item)</span></p><p><b>code</b>: Metformin (substance) <span style=\"background: LightGoldenRodYellow; margin: 4px; border: 1px solid khaki\"> (<a href=\"https://browser.ihtsdotools.org/\">SNOMED CT</a>#372567009)</span></p><p><b>subject</b>: <a href=\"#Patient_SUfferer\">See above (Patient/SUfferer)</a></p></div>"
        },
        "extension": [
          {
            "url": "http://fhir.ch/ig/ch-rad-order/StructureDefinition/ch-rad-order-caveat-type",
            "valueCoding": {
              "system": "http://snomed.info/sct",
              "code": "182817000",
              "display": "Drug prescription (situation)"
            }
          },
          {
            "url": "http://fhir.ch/ig/ch-rad-order/StructureDefinition/ch-rad-order-qualifier-value",
            "valueCoding": {
              "system": "http://snomed.info/sct",
              "code": "52101004",
              "display": "Present (qualifier value)"
            }
          }
        ],
        "category": [
          {
            "coding": [
              {
                "system": "http://terminology.hl7.org/CodeSystem/condition-category",
                "code": "problem-list-item",
                "display": "Problem List Item"
              }
            ]
          }
        ],
        "code": {
          "coding": [
            {
              "system": "http://snomed.info/sct",
              "code": "372567009",
              "display": "Metformin (substance)"
            }
          ]
        },
        "subject": {
          "reference": "Patient/SUfferer"
        }
      }
    },
    {
      "fullUrl": "http://example.com/fhir/Condition/CaveatDeviceCardiacPacemaker",
      "resource": {
        "resourceType": "Condition",
        "id": "CaveatDeviceCardiacPacemaker",
        "meta": {
          "profile": [
            "http://fhir.ch/ig/ch-rad-order/StructureDefinition/ch-rad-order-caveat-condition"
          ]
        },
        "text": {
          "status": "extensions",
          "div": "<div xmlns=\"http://www.w3.org/1999/xhtml\"><p><b>Generated Narrative</b></p><div style=\"display: inline-block; background-color: #d9e0e7; padding: 6px; margin: 4px; border: 1px solid #8da1b4; border-radius: 5px; line-height: 60%\"><p style=\"margin-bottom: 0px\">Resource \"CaveatDeviceCardiacPacemaker\" </p><p style=\"margin-bottom: 0px\">Profile: <a href=\"StructureDefinition-ch-rad-order-caveat-condition.html\">CH RAD-Order Caveat Condition</a></p></div><p><b>CH RAD-Order Caveat Type</b>: Device in situ (finding) (Details: SNOMED CT code 397578001 = 'Device in situ (finding)', stated as 'Device in situ (finding)')</p><p><b>CH RAD-Order Caveat Type</b>: Present (qualifier value) (Details: SNOMED CT code 52101004 = 'Present', stated as 'Present (qualifier value)')</p><p><b>category</b>: Problem List Item <span style=\"background: LightGoldenRodYellow; margin: 4px; border: 1px solid khaki\"> (<a href=\"http://terminology.hl7.org/3.0.0/CodeSystem-condition-category.html\">Condition Category Codes</a>#problem-list-item)</span></p><p><b>code</b>: Cardiac pacemaker in situ <span style=\"background: LightGoldenRodYellow; margin: 4px; border: 1px solid khaki\"> (<a href=\"https://browser.ihtsdotools.org/\">SNOMED CT</a>#441509002)</span></p><p><b>subject</b>: <a href=\"#Patient_SUfferer\">See above (Patient/SUfferer)</a></p></div>"
        },
        "extension": [
          {
            "url": "http://fhir.ch/ig/ch-rad-order/StructureDefinition/ch-rad-order-caveat-type",
            "valueCoding": {
              "system": "http://snomed.info/sct",
              "code": "397578001",
              "display": "Device in situ (finding)"
            }
          },
          {
            "url": "http://fhir.ch/ig/ch-rad-order/StructureDefinition/ch-rad-order-qualifier-value",
            "valueCoding": {
              "system": "http://snomed.info/sct",
              "code": "52101004",
              "display": "Present (qualifier value)"
            }
          }
        ],
        "category": [
          {
            "coding": [
              {
                "system": "http://terminology.hl7.org/CodeSystem/condition-category",
                "code": "problem-list-item",
                "display": "Problem List Item"
              }
            ]
          }
        ],
        "code": {
          "coding": [
            {
              "system": "http://snomed.info/sct",
              "code": "441509002",
              "display": "Cardiac pacemaker in situ"
            }
          ]
        },
        "subject": {
          "reference": "Patient/SUfferer"
        }
      }
    },
    {
      "fullUrl": "http://example.com/fhir/Media/MediaRx",
      "resource": {
        "resourceType": "Media",
        "id": "MediaRx",
        "meta": {
          "profile": [
            "http://fhir.ch/ig/ch-rad-order/StructureDefinition/ch-rad-order-media"
          ]
        },
        "text": {
          "status": "generated",
          "div": "<div xmlns=\"http://www.w3.org/1999/xhtml\"><p><b>Generated Narrative</b></p><div style=\"display: inline-block; background-color: #d9e0e7; padding: 6px; margin: 4px; border: 1px solid #8da1b4; border-radius: 5px; line-height: 60%\"><p style=\"margin-bottom: 0px\">Resource \"MediaRx\" </p><p style=\"margin-bottom: 0px\">Profile: <a href=\"StructureDefinition-ch-rad-order-media.html\">CH RAD-Order Media</a></p></div><p><b>status</b>: completed</p></div>"
        },
        "status": "completed",
        "content": {
          "contentType": "application/dicom",
          "data": "RXhhbXBsZQ==",
          "title": "xray_chest_S_Ufferer_20190401.dcm"
        }
      }
    },
    {
      "fullUrl": "http://example.com/fhir/Appointment/AppointmentRadiography",
      "resource": {
        "resourceType": "Appointment",
        "id": "AppointmentRadiography",
        "meta": {
          "profile": [
            "http://fhir.ch/ig/ch-orf/StructureDefinition/ch-orf-appointment"
          ]
        },
        "text": {
          "status": "generated",
          "div": "<div xmlns=\"http://www.w3.org/1999/xhtml\"><p><b>Generated Narrative</b></p><div style=\"display: inline-block; background-color: #d9e0e7; padding: 6px; margin: 4px; border: 1px solid #8da1b4; border-radius: 5px; line-height: 60%\"><p style=\"margin-bottom: 0px\">Resource \"AppointmentRadiography\" </p><p style=\"margin-bottom: 0px\">Profile: <a href=\"http://fhir.ch/ig/ch-orf/StructureDefinition-ch-orf-appointment.html\">CH ORF Appointment</a></p></div><p><b>status</b>: proposed</p><p><b>patientInstruction</b>: Wunschtermin der Patientin</p><h3>Participants</h3><table class=\"grid\"><tr><td>-</td><td><b>Actor</b></td><td><b>Status</b></td></tr><tr><td>*</td><td><a href=\"#Location_LocationRadiography\">See above (Location/LocationRadiography)</a></td><td>tentative</td></tr></table><p><b>requestedPeriod</b>: 2019-04-01T15:00:00Z --&gt; 2019-04-01T15:30:00Z</p></div>"
        },
        "status": "proposed",
        "patientInstruction": "Wunschtermin der Patientin",
        "participant": [
          {
            "actor": {
              "reference": "Location/LocationRadiography"
            },
            "status": "tentative"
          }
        ],
        "requestedPeriod": [
          {
            "start": "2019-04-01T15:00:00.000+00:00",
            "end": "2019-04-01T15:30:00.000+00:00"
          }
        ]
      }
    },
    {
      "fullUrl": "http://example.com/fhir/Location/LocationRadiography",
      "resource": {
        "resourceType": "Location",
        "id": "LocationRadiography",
        "meta": {
          "profile": [
            "http://fhir.ch/ig/ch-orf/StructureDefinition/ch-orf-location"
          ]
        },
        "text": {
          "status": "generated",
          "div": "<div xmlns=\"http://www.w3.org/1999/xhtml\"><p><b>Generated Narrative</b></p><div style=\"display: inline-block; background-color: #d9e0e7; padding: 6px; margin: 4px; border: 1px solid #8da1b4; border-radius: 5px; line-height: 60%\"><p style=\"margin-bottom: 0px\">Resource \"LocationRadiography\" </p><p style=\"margin-bottom: 0px\">Profile: <a href=\"http://fhir.ch/ig/ch-orf/StructureDefinition-ch-orf-location.html\">CH ORF Location</a></p></div><p><b>name</b>: Radiologie</p><p><b>telecom</b>: <a href=\"tel:+41444126556\">+41 44 412 65 56</a></p><p><b>address</b>: Seestrasse 133 Röntgen Zürich 8000 Schweiz </p></div>"
        },
        "name": "Radiologie",
        "telecom": [
          {
            "system": "phone",
            "value": "+41 44 412 65 56"
          }
        ],
        "address": {
          "line": [
            "Seestrasse 133",
            "Röntgen"
          ],
          "city": "Zürich",
          "postalCode": "8000",
          "country": "Schweiz"
        }
      }
    }
  ]
}