<?xml version="1.0" encoding="UTF-8"?>

<Bundle xmlns="http://hl7.org/fhir">
  <id value="35Doc-CJD"/>
  <identifier>
    <system value="urn:ietf:rfc:3986"/>
    <value value="urn:uuid:34013a2d-6012-443f-9a90-6331adb23aab"/>
  </identifier>
  <type value="document"/>
  <timestamp value="2024-10-20T12:00:00+02:00"/>
  <entry>
    <fullUrl value="urn:uuid:95661854-e1e4-4ca3-97b7-9e6c116cf014"/>
    <resource>
      <Composition>
        <id value="95661854-e1e4-4ca3-97b7-9e6c116cf014"/>
        <language value="de-CH"/>
        <identifier>
          <system value="urn:ietf:rfc:3986"/>
          <value value="urn:uuid:34013a2d-6012-443f-9a90-6331adb23aab"/>
        </identifier>
        <status value="final"/>
        <type>
          <coding>
            <system value="http://snomed.info/sct"/>
            <version value="http://snomed.info/sct/2011000195101"/>
            <code value="4241000179101"/>
            <display value="Laborbericht"/>
          </coding>
          <coding>
            <system value="http://loinc.org"/>
            <code value="11502-2"/>
            <display value="Laboratory report"/>
          </coding>
        </type>
        <subject>
          <reference value="urn:uuid:6f250b07-03d1-4330-9fb4-cfc89a048e7e"/>
        </subject>
        <date value="2024-10-20T12:00:00+02:00"/>
        <author>
          <reference value="urn:uuid:cfd592ee-0a10-4972-ba0c-e33baec61a34"/>
        </author>
        <title value="Laborbericht vom 20.10.2024"/>
        <section>
          <title value="Analyseergebnisse der mikrobiologischen Untersuchung"/>
          <code>
            <coding>
              <system value="http://loinc.org"/>
              <code value="18725-2"/>
              <display value="Microbiology studies (set)"/>
            </coding>
          </code>
          <entry>
            <reference value="urn:uuid:f04cdabf-5038-4293-a620-f939d4193d88"/>
          </entry>
        </section>
      </Composition>
    </resource>
  </entry>
  <entry>
    <fullUrl value="urn:uuid:6f250b07-03d1-4330-9fb4-cfc89a048e7e"/>
    <resource>
      <Patient>
        <id value="6f250b07-03d1-4330-9fb4-cfc89a048e7e"/>
        <identifier>
          <system value="urn:oid:2.16.756.5.32"/>
          <value value="7561234567897"/>
        </identifier>
        <name>
          <family value="Dupont"/>
          <given value="Antoine"/>
        </name>
        <gender value="female"/>
        <birthDate value="1981-02-07"/>
        <address>
          <use value="home"/>
          <line value="rue de la république 10">
            <extension url="http://hl7.org/fhir/StructureDefinition/iso21090-ADXP-streetName">
              <valueString value="rue de la république"/>
            </extension>
            <extension url="http://hl7.org/fhir/StructureDefinition/iso21090-ADXP-houseNumber">
              <valueString value="10"/>
            </extension>
          </line>
          <city value="Carouge"/>
          <state value="GE"/>
          <postalCode value="1227"/>
          <country value="CH">
            <extension url="http://hl7.org/fhir/StructureDefinition/iso21090-SC-coding">
              <valueCoding>
                <system value="urn:iso:std:iso:3166"/>
                <code value="CH"/>
              </valueCoding>
            </extension>
          </country>
        </address>
      </Patient>
    </resource>
  </entry>
  <entry>
    <fullUrl value="urn:uuid:cfd592ee-0a10-4972-ba0c-e33baec61a34"/>
    <resource>
      <Organization>
        <id value="cfd592ee-0a10-4972-ba0c-e33baec61a34"/>
        <identifier>
          <system value="urn:oid:2.51.1.3"/>
          <value value="7601002331470"/>
        </identifier>
        <name value="SanLab"/>
      </Organization>
    </resource>
  </entry>
  <entry>
    <fullUrl value="urn:uuid:f04cdabf-5038-4293-a620-f939d4193d88"/>
    <resource>
      <Observation>
        <id value="f04cdabf-5038-4293-a620-f939d4193d88"/>
        <status value="final"/>
        <category>
          <coding>
            <system value="http://terminology.hl7.org/CodeSystem/observation-category"/>
            <code value="laboratory"/>
            <display value="Laboratory"/>
          </coding>
        </category>
        <code>
          <coding>
            <system value="http://loinc.org"/>
            <code value="31989-7"/>
          </coding>
        </code>
        <subject>
          <reference value="urn:uuid:6f250b07-03d1-4330-9fb4-cfc89a048e7e"/>
        </subject>
        <effectiveDateTime value="2024-10-19T14:20:00+02:00"/>
        <performer>
          <reference value="urn:uuid:cfd592ee-0a10-4972-ba0c-e33baec61a34"/>
        </performer>
        <dataAbsentReason>
          <coding>
            <system value="http://terminology.hl7.org/CodeSystem/data-absent-reason"/>
            <code value="not-applicable"/>
          </coding>
        </dataAbsentReason>
        <interpretation>
          <coding>
            <system value="http://terminology.hl7.org/CodeSystem/v3-ObservationInterpretation"/>
            <code value="POS"/>
            <display value="Positive"/>
          </coding>
        </interpretation>
        <specimen>
          <reference value="urn:uuid:c2070509-6485-43cd-ab8f-133497b6eacb"/>
        </specimen>
      </Observation>
    </resource>
  </entry>
  <entry>
    <fullUrl value="urn:uuid:bfc8d53e-3b74-4046-ac17-28cfbd5c9d9d"/>
    <resource>
      <Practitioner>
        <id value="bfc8d53e-3b74-4046-ac17-28cfbd5c9d9d"/>
        <identifier>
          <system value="urn:oid:2.51.1.3"/>
          <value value="7601000000514"/>
        </identifier>
        <name>
          <family value="Hauser"/>
          <given value="Peter"/>
        </name>
        <telecom>
          <system value="phone"/>
          <value value="+41 79 222 33 44"/>
        </telecom>
        <telecom>
          <system value="email"/>
          <value value="peter.hauser@hauserpraxis.ch"/>
        </telecom>
      </Practitioner>
    </resource>
  </entry>
  <entry>
    <fullUrl value="urn:uuid:20e26fb8-1a9e-4dd1-9516-6fcffa65e9ea"/>
    <resource>
      <Organization>
        <id value="20e26fb8-1a9e-4dd1-9516-6fcffa65e9ea"/>
        <identifier>
          <system value="urn:oid:2.16.756.5.45"/>
          <value value="A74966168"/>
        </identifier>
        <name value="Praxis Dr. Hauser"/>
        <address>
          <line value="Hauptstrasse 10">
            <extension url="http://hl7.org/fhir/StructureDefinition/iso21090-ADXP-streetName">
              <valueString value="Hauptstrasse"/>
            </extension>
            <extension url="http://hl7.org/fhir/StructureDefinition/iso21090-ADXP-houseNumber">
              <valueString value="10"/>
            </extension>
          </line>
          <city value="Solothurn"/>
          <postalCode value="4500"/>
        </address>
      </Organization>
    </resource>
  </entry>
  <entry>
    <fullUrl value="urn:uuid:3d5fa9bc-584f-4093-b2bc-53bf6d09f456"/>
    <resource>
      <PractitionerRole>
        <id value="3d5fa9bc-584f-4093-b2bc-53bf6d09f456"/>
        <practitioner>
          <reference value="urn:uuid:bfc8d53e-3b74-4046-ac17-28cfbd5c9d9d"/>
        </practitioner>
        <organization>
          <reference value="urn:uuid:20e26fb8-1a9e-4dd1-9516-6fcffa65e9ea"/>
        </organization>
      </PractitionerRole>
    </resource>
  </entry>
  <entry>
    <fullUrl value="urn:uuid:c2070509-6485-43cd-ab8f-133497b6eacb"/>
    <resource>
      <Specimen>
        <id value="c2070509-6485-43cd-ab8f-133497b6eacb"/>
        <type>
          <text value="Material declared by Observation.code or non-mandatory"/>
        </type>
        <subject>
          <reference value="urn:uuid:6f250b07-03d1-4330-9fb4-cfc89a048e7e"/>
        </subject>
        <collection>
          <collectedDateTime value="2024-10-15T14:20:00+02:00"/>
        </collection>
      </Specimen>
    </resource>
  </entry>
  <entry>
    <fullUrl value="urn:uuid:c86a1bb1-8b08-422d-8cdb-e8fa8169f74c"/>
    <resource>
      <ServiceRequest>
        <id value="c86a1bb1-8b08-422d-8cdb-e8fa8169f74c"/>
        <identifier>
          <value value="26500923675"/>
        </identifier>
        <status value="completed"/>
        <intent value="order"/>
        <code>
          <coding>
            <system value="http://loinc.org"/>
            <code value="31989-7"/>
          </coding>
        </code>
        <subject>
          <reference value="urn:uuid:6f250b07-03d1-4330-9fb4-cfc89a048e7e"/>
        </subject>
        <requester>
          <reference value="urn:uuid:3d5fa9bc-584f-4093-b2bc-53bf6d09f456"/>
        </requester>
        <specimen>
          <reference value="urn:uuid:c2070509-6485-43cd-ab8f-133497b6eacb"/>
        </specimen>
      </ServiceRequest>
    </resource>
  </entry>
  <entry>
    <fullUrl value="urn:uuid:9d2b7ebb-dea3-4c32-81ab-2688ce8f83ad"/>
    <resource>
      <DiagnosticReport>
        <id value="9d2b7ebb-dea3-4c32-81ab-2688ce8f83ad"/>
        <extension url="http://hl7.org/fhir/5.0/StructureDefinition/extension-DiagnosticReport.composition">
          <valueReference>
            <reference value="urn:uuid:95661854-e1e4-4ca3-97b7-9e6c116cf014"/>
          </valueReference>
        </extension>
        <identifier>
          <system value="urn:ietf:rfc:3986"/>
          <value value="urn:uuid:34013a2d-6012-443f-9a90-6331adb23aab"/>
        </identifier>
        <basedOn>
          <reference value="urn:uuid:c86a1bb1-8b08-422d-8cdb-e8fa8169f74c"/>
        </basedOn>
        <status value="final"/>
        <code>
          <coding>
            <system value="http://loinc.org"/>
            <code value="11502-2"/>
            <display value="Laboratory report"/>
          </coding>
        </code>
        <subject>
          <reference value="urn:uuid:6f250b07-03d1-4330-9fb4-cfc89a048e7e"/>
        </subject>
        <performer>
          <reference value="urn:uuid:cfd592ee-0a10-4972-ba0c-e33baec61a34"/>
        </performer>
        <specimen>
          <reference value="urn:uuid:c2070509-6485-43cd-ab8f-133497b6eacb"/>
        </specimen>
        <result>
          <reference value="urn:uuid:f04cdabf-5038-4293-a620-f939d4193d88"/>
        </result>
      </DiagnosticReport>
    </resource>
  </entry>
</Bundle>