<?xml version="1.0" encoding="UTF-8"?>

<Bundle xmlns="http://hl7.org/fhir">
  <id value="40Doc-Crimean-Congo"/>
  <identifier>
    <system value="urn:ietf:rfc:3986"/>
    <value value="urn:uuid:54013a2d-6012-443f-9a90-6331adb23aab"/>
  </identifier>
  <type value="document"/>
  <timestamp value="2024-10-20T12:00:00+02:00"/>
  <entry>
    <fullUrl value="urn:uuid:e738d6f7-8287-4ac0-a9a7-3f6ca37118d1"/>
    <resource>
      <Composition>
        <id value="e738d6f7-8287-4ac0-a9a7-3f6ca37118d1"/>
        <language value="de-CH"/>
        <identifier>
          <system value="urn:ietf:rfc:3986"/>
          <value value="urn:uuid:54013a2d-6012-443f-9a90-6331adb23aab"/>
        </identifier>
        <status value="final"/>
        <type>
          <coding>
            <system value="http://snomed.info/sct"/>
            <version value="http://snomed.info/sct/2011000195101"/>
            <code value="4241000179101"/>
            <display value="Laborbericht"/>
          </coding>
          <coding>
            <system value="http://loinc.org"/>
            <code value="11502-2"/>
            <display value="Laboratory report"/>
          </coding>
        </type>
        <subject>
          <reference value="urn:uuid:ee999c19-87a9-41c8-ba0c-7eedb4ceb755"/>
        </subject>
        <date value="2024-10-20T12:00:00+02:00"/>
        <author>
          <reference value="urn:uuid:4451b35c-0918-40c4-b4ab-2671e55f8279"/>
        </author>
        <title value="Laborbericht vom 20.10.2024"/>
        <section>
          <title value="Analyseergebnisse der mikrobiologischen Untersuchung"/>
          <code>
            <coding>
              <system value="http://loinc.org"/>
              <code value="18725-2"/>
              <display value="Microbiology studies (set)"/>
            </coding>
          </code>
          <entry>
            <reference value="urn:uuid:e5fa7a04-edaf-463d-9209-69cf72f10e09"/>
          </entry>
        </section>
      </Composition>
    </resource>
  </entry>
  <entry>
    <fullUrl value="urn:uuid:ee999c19-87a9-41c8-ba0c-7eedb4ceb755"/>
    <resource>
      <Patient>
        <id value="ee999c19-87a9-41c8-ba0c-7eedb4ceb755"/>
        <identifier>
          <system value="urn:oid:2.16.756.5.32"/>
          <value value="7561234567897"/>
        </identifier>
        <name>
          <family value="Dupont"/>
          <given value="Antoine"/>
        </name>
        <gender value="female"/>
        <birthDate value="1981-02-07"/>
        <address>
          <use value="home"/>
          <line value="rue de la république 10">
            <extension url="http://hl7.org/fhir/StructureDefinition/iso21090-ADXP-streetName">
              <valueString value="rue de la république"/>
            </extension>
            <extension url="http://hl7.org/fhir/StructureDefinition/iso21090-ADXP-houseNumber">
              <valueString value="10"/>
            </extension>
          </line>
          <city value="Carouge"/>
          <state value="GE"/>
          <postalCode value="1227"/>
          <country value="CH">
            <extension url="http://hl7.org/fhir/StructureDefinition/iso21090-SC-coding">
              <valueCoding>
                <system value="urn:iso:std:iso:3166"/>
                <code value="CH"/>
              </valueCoding>
            </extension>
          </country>
        </address>
      </Patient>
    </resource>
  </entry>
  <entry>
    <fullUrl value="urn:uuid:4451b35c-0918-40c4-b4ab-2671e55f8279"/>
    <resource>
      <Organization>
        <id value="4451b35c-0918-40c4-b4ab-2671e55f8279"/>
        <identifier>
          <system value="urn:oid:2.51.1.3"/>
          <value value="7601002331470"/>
        </identifier>
        <name value="SanLab"/>
      </Organization>
    </resource>
  </entry>
  <entry>
    <fullUrl value="urn:uuid:e5fa7a04-edaf-463d-9209-69cf72f10e09"/>
    <resource>
      <Observation>
        <id value="e5fa7a04-edaf-463d-9209-69cf72f10e09"/>
        <status value="final"/>
        <category>
          <coding>
            <system value="http://terminology.hl7.org/CodeSystem/observation-category"/>
            <code value="laboratory"/>
            <display value="Laboratory"/>
          </coding>
        </category>
        <code>
          <coding>
            <system value="http://loinc.org"/>
            <code value="88192-0"/>
          </coding>
        </code>
        <subject>
          <reference value="urn:uuid:ee999c19-87a9-41c8-ba0c-7eedb4ceb755"/>
        </subject>
        <effectiveDateTime value="2024-10-19T14:20:00+02:00"/>
        <performer>
          <reference value="urn:uuid:4451b35c-0918-40c4-b4ab-2671e55f8279"/>
        </performer>
        <dataAbsentReason>
          <coding>
            <system value="http://terminology.hl7.org/CodeSystem/data-absent-reason"/>
            <code value="not-applicable"/>
          </coding>
        </dataAbsentReason>
        <interpretation>
          <coding>
            <system value="http://terminology.hl7.org/CodeSystem/v3-ObservationInterpretation"/>
            <code value="POS"/>
            <display value="Positive"/>
          </coding>
        </interpretation>
        <specimen>
          <reference value="urn:uuid:46bef988-9693-46fc-89c6-0d420131a28f"/>
        </specimen>
      </Observation>
    </resource>
  </entry>
  <entry>
    <fullUrl value="urn:uuid:c1e5fb38-22de-42c3-a5d9-b8b091b0d40a"/>
    <resource>
      <Practitioner>
        <id value="c1e5fb38-22de-42c3-a5d9-b8b091b0d40a"/>
        <identifier>
          <system value="urn:oid:2.51.1.3"/>
          <value value="7601000000514"/>
        </identifier>
        <name>
          <family value="Hauser"/>
          <given value="Peter"/>
        </name>
        <telecom>
          <system value="phone"/>
          <value value="+41 79 222 33 44"/>
        </telecom>
        <telecom>
          <system value="email"/>
          <value value="peter.hauser@hauserpraxis.ch"/>
        </telecom>
      </Practitioner>
    </resource>
  </entry>
  <entry>
    <fullUrl value="urn:uuid:d9ade87f-aaf9-41aa-8854-72c11ea7c2e3"/>
    <resource>
      <Organization>
        <id value="d9ade87f-aaf9-41aa-8854-72c11ea7c2e3"/>
        <identifier>
          <system value="urn:oid:2.16.756.5.45"/>
          <value value="A74966168"/>
        </identifier>
        <name value="Praxis Dr. Hauser"/>
        <address>
          <line value="Hauptstrasse 10">
            <extension url="http://hl7.org/fhir/StructureDefinition/iso21090-ADXP-streetName">
              <valueString value="Hauptstrasse"/>
            </extension>
            <extension url="http://hl7.org/fhir/StructureDefinition/iso21090-ADXP-houseNumber">
              <valueString value="10"/>
            </extension>
          </line>
          <city value="Solothurn"/>
          <postalCode value="4500"/>
        </address>
      </Organization>
    </resource>
  </entry>
  <entry>
    <fullUrl value="urn:uuid:3c97fca9-aedc-494a-8b71-67898c8840b4"/>
    <resource>
      <PractitionerRole>
        <id value="3c97fca9-aedc-494a-8b71-67898c8840b4"/>
        <practitioner>
          <reference value="urn:uuid:c1e5fb38-22de-42c3-a5d9-b8b091b0d40a"/>
        </practitioner>
        <organization>
          <reference value="urn:uuid:d9ade87f-aaf9-41aa-8854-72c11ea7c2e3"/>
        </organization>
      </PractitionerRole>
    </resource>
  </entry>
  <entry>
    <fullUrl value="urn:uuid:46bef988-9693-46fc-89c6-0d420131a28f"/>
    <resource>
      <Specimen>
        <id value="46bef988-9693-46fc-89c6-0d420131a28f"/>
        <type>
          <text value="Material declared by Observation.code or non-mandatory"/>
        </type>
        <subject>
          <reference value="urn:uuid:ee999c19-87a9-41c8-ba0c-7eedb4ceb755"/>
        </subject>
        <collection>
          <collectedDateTime value="2024-10-15T14:20:00+02:00"/>
        </collection>
      </Specimen>
    </resource>
  </entry>
  <entry>
    <fullUrl value="urn:uuid:0cc12137-6f72-45eb-b0dd-4d28a0209f56"/>
    <resource>
      <ServiceRequest>
        <id value="0cc12137-6f72-45eb-b0dd-4d28a0209f56"/>
        <identifier>
          <value value="26500923675"/>
        </identifier>
        <status value="completed"/>
        <intent value="order"/>
        <code>
          <coding>
            <system value="http://loinc.org"/>
            <code value="88192-0"/>
          </coding>
        </code>
        <subject>
          <reference value="urn:uuid:ee999c19-87a9-41c8-ba0c-7eedb4ceb755"/>
        </subject>
        <requester>
          <reference value="urn:uuid:3c97fca9-aedc-494a-8b71-67898c8840b4"/>
        </requester>
        <specimen>
          <reference value="urn:uuid:46bef988-9693-46fc-89c6-0d420131a28f"/>
        </specimen>
      </ServiceRequest>
    </resource>
  </entry>
  <entry>
    <fullUrl value="urn:uuid:7fcea9f2-727b-41f2-8daa-8ebbd2c69cc7"/>
    <resource>
      <DiagnosticReport>
        <id value="7fcea9f2-727b-41f2-8daa-8ebbd2c69cc7"/>
        <extension url="http://hl7.org/fhir/5.0/StructureDefinition/extension-DiagnosticReport.composition">
          <valueReference>
            <reference value="urn:uuid:e738d6f7-8287-4ac0-a9a7-3f6ca37118d1"/>
          </valueReference>
        </extension>
        <identifier>
          <system value="urn:ietf:rfc:3986"/>
          <value value="urn:uuid:54013a2d-6012-443f-9a90-6331adb23aab"/>
        </identifier>
        <basedOn>
          <reference value="urn:uuid:0cc12137-6f72-45eb-b0dd-4d28a0209f56"/>
        </basedOn>
        <status value="final"/>
        <code>
          <coding>
            <system value="http://loinc.org"/>
            <code value="11502-2"/>
            <display value="Laboratory report"/>
          </coding>
        </code>
        <subject>
          <reference value="urn:uuid:ee999c19-87a9-41c8-ba0c-7eedb4ceb755"/>
        </subject>
        <performer>
          <reference value="urn:uuid:4451b35c-0918-40c4-b4ab-2671e55f8279"/>
        </performer>
        <specimen>
          <reference value="urn:uuid:46bef988-9693-46fc-89c6-0d420131a28f"/>
        </specimen>
        <result>
          <reference value="urn:uuid:e5fa7a04-edaf-463d-9209-69cf72f10e09"/>
        </result>
      </DiagnosticReport>
    </resource>
  </entry>
</Bundle>