<?xml version="1.0" encoding="UTF-8"?>

<Bundle xmlns="http://hl7.org/fhir">
  <id value="33Doc-Salmonella-valueString"/>
  <identifier>
    <system value="urn:ietf:rfc:3986"/>
    <value value="urn:uuid:3401332d-6012-443f-9a90-6331adb23aab"/>
  </identifier>
  <type value="document"/>
  <timestamp value="2024-10-06T12:00:00+02:00"/>
  <entry>
    <fullUrl value="urn:uuid:f9549315-d1b2-488b-8553-2a6476ed581c"/>
    <resource>
      <Composition>
        <id value="f9549315-d1b2-488b-8553-2a6476ed581c"/>
        <language value="de-CH"/>
        <identifier>
          <system value="urn:ietf:rfc:3986"/>
          <value value="urn:uuid:3401332d-6012-443f-9a90-6331adb23aab"/>
        </identifier>
        <status value="final"/>
        <type>
          <coding>
            <system value="http://snomed.info/sct"/>
            <version value="http://snomed.info/sct/2011000195101"/>
            <code value="4241000179101"/>
            <display value="Laborbericht"/>
          </coding>
          <coding>
            <system value="http://loinc.org"/>
            <code value="11502-2"/>
            <display value="Laboratory report"/>
          </coding>
        </type>
        <subject>
          <reference value="urn:uuid:09e4b73a-84a6-4abf-8d2d-6ca7f2f63242"/>
        </subject>
        <date value="2024-10-06T12:00:00+02:00"/>
        <author>
          <reference value="urn:uuid:5edb631b-ec1f-4844-997b-e79d7a18e2c4"/>
        </author>
        <title value="Laborbericht vom 6.10.2024"/>
        <section>
          <title value="Analyseergebnisse der mikrobiologischen Untersuchung"/>
          <code>
            <coding>
              <system value="http://loinc.org"/>
              <code value="18725-2"/>
              <display value="Microbiology studies (set)"/>
            </coding>
          </code>
          <entry>
            <reference value="urn:uuid:722d4f13-0638-41c8-83cf-6d00d9ed2625"/>
          </entry>
        </section>
      </Composition>
    </resource>
  </entry>
  <entry>
    <fullUrl value="urn:uuid:09e4b73a-84a6-4abf-8d2d-6ca7f2f63242"/>
    <resource>
      <Patient>
        <id value="09e4b73a-84a6-4abf-8d2d-6ca7f2f63242"/>
        <identifier>
          <system value="urn:oid:2.16.756.5.32"/>
          <value value="7561234567897"/>
        </identifier>
        <name>
          <family value="Dupont"/>
          <given value="Antoine"/>
        </name>
        <gender value="female"/>
        <birthDate value="1981-02-07"/>
        <address>
          <use value="home"/>
          <line value="rue de la république 10">
            <extension url="http://hl7.org/fhir/StructureDefinition/iso21090-ADXP-streetName">
              <valueString value="rue de la république"/>
            </extension>
            <extension url="http://hl7.org/fhir/StructureDefinition/iso21090-ADXP-houseNumber">
              <valueString value="10"/>
            </extension>
          </line>
          <city value="Carouge"/>
          <state value="GE"/>
          <postalCode value="1227"/>
          <country value="CH">
            <extension url="http://hl7.org/fhir/StructureDefinition/iso21090-SC-coding">
              <valueCoding>
                <system value="urn:iso:std:iso:3166"/>
                <code value="CH"/>
              </valueCoding>
            </extension>
          </country>
        </address>
      </Patient>
    </resource>
  </entry>
  <entry>
    <fullUrl value="urn:uuid:5edb631b-ec1f-4844-997b-e79d7a18e2c4"/>
    <resource>
      <Organization>
        <id value="5edb631b-ec1f-4844-997b-e79d7a18e2c4"/>
        <identifier>
          <system value="urn:oid:2.51.1.3"/>
          <value value="7601002331470"/>
        </identifier>
        <name value="SanLab"/>
      </Organization>
    </resource>
  </entry>
  <entry>
    <fullUrl value="urn:uuid:722d4f13-0638-41c8-83cf-6d00d9ed2625"/>
    <resource>
      <Observation>
        <id value="722d4f13-0638-41c8-83cf-6d00d9ed2625"/>
        <status value="final"/>
        <category>
          <coding>
            <system value="http://terminology.hl7.org/CodeSystem/observation-category"/>
            <code value="laboratory"/>
            <display value="Laboratory"/>
          </coding>
        </category>
        <code>
          <coding>
            <system value="http://loinc.org"/>
            <code value="56475-7"/>
          </coding>
        </code>
        <subject>
          <reference value="urn:uuid:09e4b73a-84a6-4abf-8d2d-6ca7f2f63242"/>
        </subject>
        <effectiveDateTime value="2024-10-04T14:20:00+02:00"/>
        <performer>
          <reference value="urn:uuid:5edb631b-ec1f-4844-997b-e79d7a18e2c4"/>
        </performer>
        <valueString value="9,12:-:1,5"/>
        <interpretation>
          <coding>
            <system value="http://terminology.hl7.org/CodeSystem/v3-ObservationInterpretation"/>
            <code value="POS"/>
            <display value="Positive"/>
          </coding>
        </interpretation>
        <specimen>
          <reference value="urn:uuid:06491f43-1d4e-459c-a1eb-afd406fc4343"/>
        </specimen>
      </Observation>
    </resource>
  </entry>
  <entry>
    <fullUrl value="urn:uuid:3bb6a86d-5d99-477d-b75a-2cde130ef697"/>
    <resource>
      <Practitioner>
        <id value="3bb6a86d-5d99-477d-b75a-2cde130ef697"/>
        <identifier>
          <system value="urn:oid:2.51.1.3"/>
          <value value="7601000000514"/>
        </identifier>
        <name>
          <family value="Hauser"/>
          <given value="Peter"/>
        </name>
        <telecom>
          <system value="phone"/>
          <value value="+41 79 222 33 44"/>
        </telecom>
        <telecom>
          <system value="email"/>
          <value value="peter.hauser@hauserpraxis.ch"/>
        </telecom>
      </Practitioner>
    </resource>
  </entry>
  <entry>
    <fullUrl value="urn:uuid:a5980988-f1e9-4682-8693-89f4be9b4c03"/>
    <resource>
      <Organization>
        <id value="a5980988-f1e9-4682-8693-89f4be9b4c03"/>
        <identifier>
          <system value="urn:oid:2.16.756.5.45"/>
          <value value="A74966168"/>
        </identifier>
        <name value="Praxis Dr. Hauser"/>
        <address>
          <line value="Hauptstrasse 10">
            <extension url="http://hl7.org/fhir/StructureDefinition/iso21090-ADXP-streetName">
              <valueString value="Hauptstrasse"/>
            </extension>
            <extension url="http://hl7.org/fhir/StructureDefinition/iso21090-ADXP-houseNumber">
              <valueString value="10"/>
            </extension>
          </line>
          <city value="Solothurn"/>
          <postalCode value="4500"/>
        </address>
      </Organization>
    </resource>
  </entry>
  <entry>
    <fullUrl value="urn:uuid:39dd3fa7-14e8-4331-be41-2e308d8df461"/>
    <resource>
      <PractitionerRole>
        <id value="39dd3fa7-14e8-4331-be41-2e308d8df461"/>
        <practitioner>
          <reference value="urn:uuid:3bb6a86d-5d99-477d-b75a-2cde130ef697"/>
        </practitioner>
        <organization>
          <reference value="urn:uuid:a5980988-f1e9-4682-8693-89f4be9b4c03"/>
        </organization>
      </PractitionerRole>
    </resource>
  </entry>
  <entry>
    <fullUrl value="urn:uuid:06491f43-1d4e-459c-a1eb-afd406fc4343"/>
    <resource>
      <Specimen>
        <id value="06491f43-1d4e-459c-a1eb-afd406fc4343"/>
        <type>
          <text value="Material declared by Observation.code or non-mandatory"/>
        </type>
        <subject>
          <reference value="urn:uuid:09e4b73a-84a6-4abf-8d2d-6ca7f2f63242"/>
        </subject>
        <collection>
          <collectedDateTime value="2024-10-01T14:20:00+02:00"/>
        </collection>
      </Specimen>
    </resource>
  </entry>
  <entry>
    <fullUrl value="urn:uuid:bee31c1d-1ff8-4b97-ac63-18f050153ccf"/>
    <resource>
      <ServiceRequest>
        <id value="bee31c1d-1ff8-4b97-ac63-18f050153ccf"/>
        <identifier>
          <value value="26500923675"/>
        </identifier>
        <status value="completed"/>
        <intent value="order"/>
        <code>
          <coding>
            <system value="http://loinc.org"/>
            <code value="56475-7"/>
          </coding>
        </code>
        <subject>
          <reference value="urn:uuid:09e4b73a-84a6-4abf-8d2d-6ca7f2f63242"/>
        </subject>
        <requester>
          <reference value="urn:uuid:39dd3fa7-14e8-4331-be41-2e308d8df461"/>
        </requester>
        <specimen>
          <reference value="urn:uuid:06491f43-1d4e-459c-a1eb-afd406fc4343"/>
        </specimen>
      </ServiceRequest>
    </resource>
  </entry>
  <entry>
    <fullUrl value="urn:uuid:4a9b87ba-f4d2-4421-bd6c-c808ade2186c"/>
    <resource>
      <DiagnosticReport>
        <id value="4a9b87ba-f4d2-4421-bd6c-c808ade2186c"/>
        <extension url="http://hl7.org/fhir/5.0/StructureDefinition/extension-DiagnosticReport.composition">
          <valueReference>
            <reference value="urn:uuid:f9549315-d1b2-488b-8553-2a6476ed581c"/>
          </valueReference>
        </extension>
        <identifier>
          <system value="urn:ietf:rfc:3986"/>
          <value value="urn:uuid:3401332d-6012-443f-9a90-6331adb23aab"/>
        </identifier>
        <basedOn>
          <reference value="urn:uuid:bee31c1d-1ff8-4b97-ac63-18f050153ccf"/>
        </basedOn>
        <status value="final"/>
        <code>
          <coding>
            <system value="http://loinc.org"/>
            <code value="11502-2"/>
            <display value="Laboratory report"/>
          </coding>
        </code>
        <subject>
          <reference value="urn:uuid:09e4b73a-84a6-4abf-8d2d-6ca7f2f63242"/>
        </subject>
        <performer>
          <reference value="urn:uuid:5edb631b-ec1f-4844-997b-e79d7a18e2c4"/>
        </performer>
        <specimen>
          <reference value="urn:uuid:06491f43-1d4e-459c-a1eb-afd406fc4343"/>
        </specimen>
        <result>
          <reference value="urn:uuid:722d4f13-0638-41c8-83cf-6d00d9ed2625"/>
        </result>
      </DiagnosticReport>
    </resource>
  </entry>
</Bundle>