<?xml version="1.0" encoding="UTF-8"?>

<Bundle xmlns="http://hl7.org/fhir">
  <id value="30Doc-Salmonella-enteritidis"/>
  <identifier>
    <system value="urn:ietf:rfc:3986"/>
    <value value="urn:uuid:3401332d-6012-443f-9690-9331adb23aab"/>
  </identifier>
  <type value="document"/>
  <timestamp value="2024-09-05T12:00:00+02:00"/>
  <entry>
    <fullUrl value="urn:uuid:4362a322-4009-4914-90d1-65e0c0677237"/>
    <resource>
      <Composition>
        <id value="4362a322-4009-4914-90d1-65e0c0677237"/>
        <language value="de-CH"/>
        <identifier>
          <system value="urn:ietf:rfc:3986"/>
          <value value="urn:uuid:3401332d-6012-443f-9690-9331adb23aab"/>
        </identifier>
        <status value="final"/>
        <type>
          <coding>
            <system value="http://snomed.info/sct"/>
            <version value="http://snomed.info/sct/2011000195101"/>
            <code value="4241000179101"/>
            <display value="Laborbericht"/>
          </coding>
          <coding>
            <system value="http://loinc.org"/>
            <code value="11502-2"/>
            <display value="Laboratory report"/>
          </coding>
        </type>
        <subject>
          <reference value="urn:uuid:01b39aeb-0390-45c0-a7a6-dfe019987140"/>
        </subject>
        <date value="2024-09-05T12:00:00+02:00"/>
        <author>
          <reference value="urn:uuid:16809d1e-e56c-49de-9db3-380a73ca0f3c"/>
        </author>
        <title value="Laborbericht vom 2.9.2024"/>
        <section>
          <title value="Analyseergebnisse der mikrobiologischen Untersuchung"/>
          <code>
            <coding>
              <system value="http://loinc.org"/>
              <code value="18725-2"/>
              <display value="Microbiology studies (set)"/>
            </coding>
          </code>
          <entry>
            <reference value="urn:uuid:c27cefca-2583-4042-998c-585ba35b0d86"/>
          </entry>
        </section>
      </Composition>
    </resource>
  </entry>
  <entry>
    <fullUrl value="urn:uuid:01b39aeb-0390-45c0-a7a6-dfe019987140"/>
    <resource>
      <Patient>
        <id value="01b39aeb-0390-45c0-a7a6-dfe019987140"/>
        <identifier>
          <system value="urn:oid:2.16.756.5.32"/>
          <value value="7561234567897"/>
        </identifier>
        <name>
          <family value="Dupont"/>
          <given value="Antoine"/>
        </name>
        <telecom>
          <system value="phone"/>
          <value value="+41 76 222 55 22"/>
        </telecom>
        <gender value="female"/>
        <birthDate value="1981-02-07"/>
        <address>
          <use value="home"/>
          <line value="rue de la république 10">
            <extension url="http://hl7.org/fhir/StructureDefinition/iso21090-ADXP-streetName">
              <valueString value="rue de la république"/>
            </extension>
            <extension url="http://hl7.org/fhir/StructureDefinition/iso21090-ADXP-houseNumber">
              <valueString value="10"/>
            </extension>
          </line>
          <city value="Carouge"/>
          <state value="GE"/>
          <postalCode value="1227"/>
          <country value="CH">
            <extension url="http://hl7.org/fhir/StructureDefinition/iso21090-SC-coding">
              <valueCoding>
                <system value="urn:iso:std:iso:3166"/>
                <code value="CH"/>
              </valueCoding>
            </extension>
          </country>
        </address>
      </Patient>
    </resource>
  </entry>
  <entry>
    <fullUrl value="urn:uuid:16809d1e-e56c-49de-9db3-380a73ca0f3c"/>
    <resource>
      <Organization>
        <id value="16809d1e-e56c-49de-9db3-380a73ca0f3c"/>
        <identifier>
          <system value="urn:oid:2.51.1.3"/>
          <value value="7601002331470"/>
        </identifier>
        <name value="SanLab"/>
      </Organization>
    </resource>
  </entry>
  <entry>
    <fullUrl value="urn:uuid:c27cefca-2583-4042-998c-585ba35b0d86"/>
    <resource>
      <Observation>
        <id value="c27cefca-2583-4042-998c-585ba35b0d86"/>
        <status value="final"/>
        <category>
          <coding>
            <system value="http://terminology.hl7.org/CodeSystem/observation-category"/>
            <code value="laboratory"/>
            <display value="Laboratory"/>
          </coding>
        </category>
        <code>
          <coding>
            <system value="http://loinc.org"/>
            <code value="49612-5"/>
          </coding>
        </code>
        <subject>
          <reference value="urn:uuid:01b39aeb-0390-45c0-a7a6-dfe019987140"/>
        </subject>
        <effectiveDateTime value="2024-07-25T14:20:00+02:00"/>
        <performer>
          <reference value="urn:uuid:16809d1e-e56c-49de-9db3-380a73ca0f3c"/>
        </performer>
        <valueCodeableConcept>
          <coding>
            <system value="http://snomed.info/sct"/>
            <code value="73525009"/>
          </coding>
        </valueCodeableConcept>
        <interpretation>
          <coding>
            <system value="http://terminology.hl7.org/CodeSystem/v3-ObservationInterpretation"/>
            <code value="POS"/>
            <display value="Positive"/>
          </coding>
        </interpretation>
        <specimen>
          <reference value="urn:uuid:dafc4820-449d-4858-af2b-60de006ca786"/>
        </specimen>
      </Observation>
    </resource>
  </entry>
  <entry>
    <fullUrl value="urn:uuid:d5f2be8d-1764-42c7-bebb-db88f9fe5653"/>
    <resource>
      <Practitioner>
        <id value="d5f2be8d-1764-42c7-bebb-db88f9fe5653"/>
        <identifier>
          <system value="urn:oid:2.51.1.3"/>
          <value value="7601000000514"/>
        </identifier>
        <name>
          <family value="Hauser"/>
          <given value="Peter"/>
        </name>
        <telecom>
          <system value="phone"/>
          <value value="+41 79 222 33 44"/>
        </telecom>
        <telecom>
          <system value="email"/>
          <value value="peter.hauser@hauserpraxis.ch"/>
        </telecom>
      </Practitioner>
    </resource>
  </entry>
  <entry>
    <fullUrl value="urn:uuid:5f099bbb-b2d0-48af-be9e-95eafa922b04"/>
    <resource>
      <Organization>
        <id value="5f099bbb-b2d0-48af-be9e-95eafa922b04"/>
        <identifier>
          <system value="urn:oid:2.16.756.5.45"/>
          <value value="A74966168"/>
        </identifier>
        <name value="Praxis Dr. Hauser"/>
        <address>
          <line value="Hauptstrasse 10">
            <extension url="http://hl7.org/fhir/StructureDefinition/iso21090-ADXP-streetName">
              <valueString value="Hauptstrasse"/>
            </extension>
            <extension url="http://hl7.org/fhir/StructureDefinition/iso21090-ADXP-houseNumber">
              <valueString value="10"/>
            </extension>
          </line>
          <city value="Solothurn"/>
          <postalCode value="4500"/>
        </address>
      </Organization>
    </resource>
  </entry>
  <entry>
    <fullUrl value="urn:uuid:24466e89-7c4d-4ba3-a08d-8f8d5716e15d"/>
    <resource>
      <PractitionerRole>
        <id value="24466e89-7c4d-4ba3-a08d-8f8d5716e15d"/>
        <practitioner>
          <reference value="urn:uuid:d5f2be8d-1764-42c7-bebb-db88f9fe5653"/>
        </practitioner>
        <organization>
          <reference value="urn:uuid:5f099bbb-b2d0-48af-be9e-95eafa922b04"/>
        </organization>
      </PractitionerRole>
    </resource>
  </entry>
  <entry>
    <fullUrl value="urn:uuid:dafc4820-449d-4858-af2b-60de006ca786"/>
    <resource>
      <Specimen>
        <id value="dafc4820-449d-4858-af2b-60de006ca786"/>
        <subject>
          <reference value="urn:uuid:01b39aeb-0390-45c0-a7a6-dfe019987140"/>
        </subject>
        <collection>
          <collectedDateTime value="2024-08-22T14:20:00+02:00"/>
        </collection>
      </Specimen>
    </resource>
  </entry>
  <entry>
    <fullUrl value="urn:uuid:cb61c412-20d7-4ede-a433-92da0b295821"/>
    <resource>
      <ServiceRequest>
        <id value="cb61c412-20d7-4ede-a433-92da0b295821"/>
        <identifier>
          <value value="26500923622"/>
        </identifier>
        <status value="completed"/>
        <intent value="order"/>
        <code>
          <coding>
            <system value="http://loinc.org"/>
            <code value="49612-5"/>
          </coding>
        </code>
        <subject>
          <reference value="urn:uuid:01b39aeb-0390-45c0-a7a6-dfe019987140"/>
        </subject>
        <requester>
          <reference value="urn:uuid:24466e89-7c4d-4ba3-a08d-8f8d5716e15d"/>
        </requester>
        <specimen>
          <reference value="urn:uuid:dafc4820-449d-4858-af2b-60de006ca786"/>
        </specimen>
      </ServiceRequest>
    </resource>
  </entry>
  <entry>
    <fullUrl value="urn:uuid:a584090c-66c8-43e4-9dc7-37f497089a02"/>
    <resource>
      <DiagnosticReport>
        <id value="a584090c-66c8-43e4-9dc7-37f497089a02"/>
        <extension url="http://hl7.org/fhir/5.0/StructureDefinition/extension-DiagnosticReport.composition">
          <valueReference>
            <reference value="urn:uuid:4362a322-4009-4914-90d1-65e0c0677237"/>
          </valueReference>
        </extension>
        <identifier>
          <system value="urn:ietf:rfc:3986"/>
          <value value="urn:uuid:3401332d-6012-443f-9690-9331adb23aab"/>
        </identifier>
        <basedOn>
          <reference value="urn:uuid:cb61c412-20d7-4ede-a433-92da0b295821"/>
        </basedOn>
        <status value="final"/>
        <code>
          <coding>
            <system value="http://loinc.org"/>
            <code value="11502-2"/>
            <display value="Laboratory report"/>
          </coding>
        </code>
        <subject>
          <reference value="urn:uuid:01b39aeb-0390-45c0-a7a6-dfe019987140"/>
        </subject>
        <performer>
          <reference value="urn:uuid:16809d1e-e56c-49de-9db3-380a73ca0f3c"/>
        </performer>
        <specimen>
          <reference value="urn:uuid:dafc4820-449d-4858-af2b-60de006ca786"/>
        </specimen>
        <result>
          <reference value="urn:uuid:c27cefca-2583-4042-998c-585ba35b0d86"/>
        </result>
      </DiagnosticReport>
    </resource>
  </entry>
</Bundle>