<?xml version="1.0" encoding="UTF-8"?>

<Bundle xmlns="http://hl7.org/fhir">
  <id value="ch-lab-order-with-sr-and-form"/>
  <meta>
    <versionId value="1"/>
    <lastUpdated value="2019-04-01T20:18:41.341+00:00"/>
    <profile value="http://fhir.ch/ig/ch-lab-order/StructureDefinition/ch-lab-order-document-with-sr-and-form"/>
  </meta>
  <language value="en"/>
  <identifier>
    <system value="urn:ietf:rfc:3986"/>
    <value value="urn:uuid:26d3dff7-ab05-4737-a49c-5eccd33595f8"/>
  </identifier>
  <type value="document"/>
  <timestamp value="2019-04-01T20:18:41.341+00:00"/>
  <entry>
    <fullUrl value="http://example.com/fhir/Composition/ch-lab-order-composition-with-sr-and-form"/>
    <resource>
      <Composition>
        <id value="ch-lab-order-composition-with-sr-and-form"/>
        <meta>
          <versionId value="1"/>
          <lastUpdated value="2021-02-18T17:04:38.520+00:00"/>
          <profile value="http://fhir.ch/ig/ch-lab-order/StructureDefinition/ch-lab-order-composition-with-sr-and-form"/>
        </meta>
        <text>
          <status value="additional"/><div xmlns="http://www.w3.org/1999/xhtml"><div>Laboratory Order</div></div>
        </text>
        <extension url="http://fhir.ch/ig/ch-core/StructureDefinition/ch-ext-epr-dataenterer">
          <extension url="enterer">
            <valueReference>
              <reference value="PractitionerRole/MarcMustermannGruppenpraxis"/>
            </valueReference>
          </extension>
        </extension>
        <extension url="http://fhir.ch/ig/ch-orf/StructureDefinition/ch-orf-urgentnoficationcontactforthisdocument">
          <valueReference>
            <reference value="PractitionerRole/EvaErlenmeyerLaborPipette"/>
          </valueReference>
        </extension>
        <extension url="http://fhir.ch/ig/ch-orf/StructureDefinition/ch-orf-urgentnoficationcontactfortheresponsetothisdocument">
          <valueReference>
            <reference value="PractitionerRole/MarcMustermannGruppenpraxis"/>
          </valueReference>
        </extension>
        <extension url="http://fhir.ch/ig/ch-orf/StructureDefinition/ch-orf-receiver">
          <valueReference>
            <reference value="PractitionerRole/EvaErlenmeyerLaborPipette"/>
          </valueReference>
        </extension>
        <extension url="http://fhir.ch/ig/ch-orf/StructureDefinition/ch-orf-copyreceiver">
          <valueReference>
            <reference value="PractitionerRole/PeterPrestoGruppenpraxis"/>
          </valueReference>
        </extension>
        <extension url="http://fhir.ch/ig/ch-orf/StructureDefinition/ch-orf-copyreceiver">
          <valueReference>
            <reference value="Patient/HansGuggindieluft"/>
          </valueReference>
        </extension>
        <status value="final"/>
        <type>
          <coding>
            <system value="http://snomed.info/sct"/>
            <code value="721965002"/>
            <display value="Laboratory order (record artifact)"/>
          </coding>
        </type>
        <category>
          <coding>
            <system value="http://snomed.info/sct"/>
            <code value="721963009"/>
            <display value="Order (record artifact)"/>
          </coding>
        </category>
        <subject>
          <reference value="Patient/HansGuggindieluft"/>
        </subject>
        <date value="2019-03-31T11:46:09+02:00"/>
        <author>
          <reference value="PractitionerRole/MarcMustermannGruppenpraxis"/>
        </author>
        <title value="Laborauftrag"/>
        <section>
          <title value="Auftrag für Laboruntersuchung"/>
          <code>
            <coding>
              <system value="http://loinc.org"/>
              <code value="93037-0"/>
              <display value="Portable medical order form"/>
            </coding>
          </code>
          <text>
            <status value="generated"/><div xmlns="http://www.w3.org/1999/xhtml">Order-Referral-Form</div>
          </text>
          <entry>
            <reference value="Questionnaire/LabOrder-form"/>
          </entry>
          <entry>
            <reference value="QuestionnaireResponse/LabOrder-qr"/>
          </entry>
          <entry>
            <reference value="ServiceRequest/LabOrder-potassium"/>
          </entry>
        </section>
      </Composition>
    </resource>
  </entry>
  <entry>
    <fullUrl value="http://example.com/fhir/Patient/HansGuggindieluft"/>
    <resource>
      <Patient>
        <id value="HansGuggindieluft"/>
        <meta>
          <profile value="http://fhir.ch/ig/ch-core/StructureDefinition/ch-core-patient"/>
        </meta>
        <text>
          <status value="additional"/><div xmlns="http://www.w3.org/1999/xhtml"><p><b>id</b>: HansGuggindieluft</p><p><b>meta</b>:</p><p><b>identifier</b>: 012/08.111111</p><p><b>name</b>: Hans Guggindieluft</p><p><b>gender</b>: MALE</p><p><b>birthDate</b>: Jan 01, 1981</p><p><b>maritalStatus</b>: unverheiratet <span style="background: LightGoldenRodYellow">(Details : {$ech-11-maritalstatus code '5' = '5', given as 'unverheiratet'})</span></p><h3>Communications</h3><table class="grid"><tr><td>-</td><td><b>Language</b></td><td><b>Preferred</b></td></tr><tr><td>*</td><td>Deutsch (Schweiz) <span style="background: LightGoldenRodYellow">(Details : {urn:ietf:bcp:47 code 'de-CH' = 'German (Region=Schweiz))</span></td><td>true</td></tr></table></div>
        </text>
        <extension url="http://hl7.org/fhir/StructureDefinition/patient-birthPlace">
          <valueAddress>
            <city value="Zürich"/>
            <country value="Schweiz"/>
          </valueAddress>
        </extension>
        <extension url="http://fhir.ch/ig/ch-core/StructureDefinition/ch-core-patient-ech-11-placeoforigin">
          <valueAddress>
            <city value="Breitenbach"/>
            <state value="BL"/>
          </valueAddress>
        </extension>
        <extension url="http://hl7.org/fhir/StructureDefinition/patient-religion">
          <valueCodeableConcept>
            <coding>
              <system value="http://terminology.hl7.org/CodeSystem/v3-ReligiousAffiliation"/>
              <code value="1007"/>
              <display value="Atheism"/>
            </coding>
          </valueCodeableConcept>
        </extension>
        <identifier>
          <type>
            <coding>
              <system value="http://terminology.hl7.org/CodeSystem/v2-0203"/>
              <code value="MR"/>
            </coding>
          </type>
          <system value="urn:oid:2.16.756.5.30.999999.1"/>
          <value value="012/08.111111"/>
        </identifier>
        <name>
          <family value="Guggindieluft"/>
          <given value="Hans"/>
        </name>
        <telecom>
          <system value="phone"/>
          <value value="079 979 79 79"/>
          <use value="home"/>
        </telecom>
        <telecom>
          <system value="email"/>
          <value value="hans.guggindieluft@example.ch"/>
        </telecom>
        <gender value="male"/>
        <birthDate value="1981-01-01"/>
        <maritalStatus>
          <coding>
            <system value="http://fhir.ch/ig/ch-core/CodeSystem/ech-11-maritalstatus"/>
            <code value="5"/>
            <display value="unverheiratet"/>
          </coding>
        </maritalStatus>
        <communication>
          <language>
            <coding>
              <system value="urn:ietf:bcp:47"/>
              <code value="de-CH"/>
            </coding>
            <text value="Deutsch (Schweiz)"/>
          </language>
          <preferred value="true"/>
        </communication>
      </Patient>
    </resource>
  </entry>
  <entry>
    <fullUrl value="http://example.com/fhir/Patient/FranzMuster"/>
    <resource>
      <Patient>
        <id value="FranzMuster"/>
        <meta>
          <profile value="http://fhir.ch/ig/ch-core/StructureDefinition/ch-core-patient"/>
        </meta>
        <text>
          <status value="additional"/><div xmlns="http://www.w3.org/1999/xhtml"><p><b>id</b>: FranzMuster</p><p><b>meta</b>:</p><p><b>identifier</b>: 012/08.111111</p><p><b>name</b>: Franz Muster</p><p><b>gender</b>: MALE</p><p><b>birthDate</b>: Jan 27, 1995</p><p><b>maritalStatus</b>: in eingetragener Partnerschaft <span style="background: LightGoldenRodYellow">(Details : {$ech-11-maritalstatus code '6' = '6', given as 'in eingetragener Partnerschaft'})</span></p><h3>Communications</h3><table class="grid"><tr><td>-</td><td><b>Language</b></td><td><b>Preferred</b></td></tr><tr><td>*</td><td>Deutsch (Schweiz) <span style="background: LightGoldenRodYellow">(Details : {urn:ietf:bcp:47 code 'de-CH' = 'German (Region=Schweiz))</span></td><td>true</td></tr></table></div>
        </text>
        <extension url="http://hl7.org/fhir/StructureDefinition/patient-birthPlace">
          <valueAddress>
            <city value="Paris"/>
            <country value="Frankreich"/>
          </valueAddress>
        </extension>
        <extension url="http://fhir.ch/ig/ch-core/StructureDefinition/ch-core-patient-ech-11-placeoforigin">
          <valueAddress>
            <city value="Köniz"/>
            <state value="BE"/>
          </valueAddress>
        </extension>
        <extension url="http://hl7.org/fhir/StructureDefinition/patient-religion">
          <valueCodeableConcept>
            <coding>
              <system value="http://terminology.hl7.org/CodeSystem/v3-ReligiousAffiliation"/>
              <code value="1077"/>
              <display value="Protestant"/>
            </coding>
          </valueCodeableConcept>
        </extension>
        <identifier>
          <type>
            <coding>
              <system value="http://terminology.hl7.org/CodeSystem/v2-0203"/>
              <code value="MR"/>
            </coding>
          </type>
          <system value="urn:oid:2.16.756.5.30.999999.1"/>
          <value value="012/08.111111"/>
        </identifier>
        <name>
          <family value="Muster"/>
          <given value="Franz"/>
        </name>
        <telecom>
          <system value="phone"/>
          <value value="+41 32 321 61 11"/>
          <use value="home"/>
        </telecom>
        <telecom>
          <system value="email"/>
          <value value="franz.muster@example.ch"/>
        </telecom>
        <gender value="male"/>
        <birthDate value="1995-01-27"/>
        <maritalStatus>
          <coding>
            <system value="http://fhir.ch/ig/ch-core/CodeSystem/ech-11-maritalstatus"/>
            <code value="6"/>
            <display value="in eingetragener Partnerschaft"/>
          </coding>
        </maritalStatus>
        <communication>
          <language>
            <coding>
              <system value="urn:ietf:bcp:47"/>
              <code value="de-CH"/>
            </coding>
            <text value="Deutsch (Schweiz)"/>
          </language>
          <preferred value="true"/>
        </communication>
      </Patient>
    </resource>
  </entry>
  <entry>
    <fullUrl value="http://example.com/fhir/Patient/BeatBorer"/>
    <resource>
      <Patient>
        <id value="BeatBorer"/>
        <meta>
          <profile value="http://fhir.ch/ig/ch-core/StructureDefinition/ch-core-patient"/>
        </meta>
        <text>
          <status value="additional"/><div xmlns="http://www.w3.org/1999/xhtml"><p><b>id</b>: BeatBorer</p><p><b>meta</b>:</p><p><b>identifier</b>: 012/08.111115</p><p><b>name</b>: Beat Borer</p><p><b>gender</b>: MALE</p><p><b>birthDate</b>: Jun 06, 1986</p><p><b>maritalStatus</b>: verheiratet <span style="background: LightGoldenRodYellow">(Details : {$ech-11-maritalstatus code '6' = '6', given as 'in eingetragener Partnerschaft'})</span></p><h3>Communications</h3><table class="grid"><tr><td>-</td><td><b>Language</b></td><td><b>Preferred</b></td></tr><tr><td>*</td><td>Deutsch (Schweiz) <span style="background: LightGoldenRodYellow">(Details : {urn:ietf:bcp:47 code 'de-CH' = 'German (Region=Schweiz))</span></td><td>true</td></tr></table></div>
        </text>
        <extension url="http://hl7.org/fhir/StructureDefinition/patient-birthPlace">
          <valueAddress>
            <city value="Lausanne"/>
            <country value="Schweiz"/>
          </valueAddress>
        </extension>
        <extension url="http://fhir.ch/ig/ch-core/StructureDefinition/ch-core-patient-ech-11-placeoforigin">
          <valueAddress>
            <city value="Köniz"/>
            <state value="BE"/>
          </valueAddress>
        </extension>
        <extension url="http://hl7.org/fhir/StructureDefinition/patient-religion">
          <valueCodeableConcept>
            <coding>
              <system value="http://terminology.hl7.org/CodeSystem/v3-ReligiousAffiliation"/>
              <code value="1077"/>
              <display value="Protestant"/>
            </coding>
          </valueCodeableConcept>
        </extension>
        <identifier>
          <type>
            <coding>
              <system value="http://terminology.hl7.org/CodeSystem/v2-0203"/>
              <code value="MR"/>
            </coding>
          </type>
          <system value="urn:oid:2.16.756.5.30.999999.1"/>
          <value value="012/08.111115"/>
        </identifier>
        <name>
          <family value="Borer"/>
          <given value="Beat"/>
        </name>
        <telecom>
          <system value="phone"/>
          <value value="+41 36 123 45 67"/>
          <use value="home"/>
        </telecom>
        <telecom>
          <system value="email"/>
          <value value="beat.borer@example.ch"/>
        </telecom>
        <gender value="male"/>
        <birthDate value="1986-06-06"/>
        <maritalStatus>
          <coding>
            <system value="http://fhir.ch/ig/ch-core/CodeSystem/ech-11-maritalstatus"/>
            <code value="2"/>
            <display value="verheiratet"/>
          </coding>
        </maritalStatus>
        <communication>
          <language>
            <coding>
              <system value="urn:ietf:bcp:47"/>
              <code value="de-CH"/>
            </coding>
            <text value="Deutsch (Schweiz)"/>
          </language>
          <preferred value="true"/>
        </communication>
      </Patient>
    </resource>
  </entry>
  <entry>
    <fullUrl value="http://example.com/fhir/Practitioner/MarcMustermann"/>
    <resource>
      <Practitioner>
        <id value="MarcMustermann"/>
        <meta>
          <profile value="http://fhir.ch/ig/ch-core/StructureDefinition/ch-core-practitioner"/>
        </meta>
        <text>
          <status value="generated"/><div xmlns="http://www.w3.org/1999/xhtml"><a name="Practitioner_MarcMustermann"> </a><p><b>Generated Narrative: Practitioner </b><a name="MarcMustermann"> </a><a name="hcMarcMustermann"> </a></p><div style="display: inline-block; background-color: #d9e0e7; padding: 6px; margin: 4px; border: 1px solid #8da1b4; border-radius: 5px; line-height: 60%"><p style="margin-bottom: 0px">ResourcePractitioner &quot;MarcMustermann&quot; </p><p style="margin-bottom: 0px">Profile: <a href="http://fhir.ch/ig/ch-core/4.0.1/StructureDefinition-ch-core-practitioner.html">CH Core Practitioner</a></p></div><p><b>identifier</b>: <a href="https://www.gs1.org/standards/id-keys/gln" title="Global Location Number">GLN</a>/7601000050700, <code>urn:oid:2.16.756.5.30.1.123.100.2.1.1</code>/A123309</p><p><b>name</b>: Marc Mustermann (Official)</p><p><b>telecom</b>: ph: 033 444 22 11(WORK), <a href="mailto:marc.mustermann@gruppenpraxis.ch">marc.mustermann@gruppenpraxis.ch</a></p></div>
        </text>
        <identifier>
          <system value="urn:oid:2.51.1.3"/>
          <value value="7601000050700"/>
        </identifier>
        <identifier>
          <system value="urn:oid:2.16.756.5.30.1.123.100.2.1.1"/>
          <value value="A123309"/>
        </identifier>
        <name>
          <use value="official"/>
          <family value="Mustermann"/>
          <given value="Marc"/>
          <prefix value="Dr. med.">
            <extension url="http://hl7.org/fhir/StructureDefinition/iso21090-EN-qualifier">
              <valueCode value="AC"/>
            </extension>
          </prefix>
        </name>
        <telecom>
          <system value="phone"/>
          <value value="033 444 22 11"/>
          <use value="work"/>
        </telecom>
        <telecom>
          <system value="email"/>
          <value value="marc.mustermann@gruppenpraxis.ch"/>
          <use value="work"/>
        </telecom>
      </Practitioner>
    </resource>
  </entry>
  <entry>
    <fullUrl value="http://example.com/fhir/Organization/Gruppenpraxis"/>
    <resource>
      <Organization>
        <id value="Gruppenpraxis"/>
        <meta>
          <profile value="http://fhir.ch/ig/ch-core/StructureDefinition/ch-core-organization-epr"/>
        </meta>
        <text>
          <status value="generated"/><div xmlns="http://www.w3.org/1999/xhtml"><a name="Organization_Gruppenpraxis"> </a><p><b>Generated Narrative: Organization </b><a name="Gruppenpraxis"> </a><a name="hcGruppenpraxis"> </a></p><div style="display: inline-block; background-color: #d9e0e7; padding: 6px; margin: 4px; border: 1px solid #8da1b4; border-radius: 5px; line-height: 60%"><p style="margin-bottom: 0px">ResourceOrganization &quot;Gruppenpraxis&quot; </p><p style="margin-bottom: 0px">Profile: <a href="http://fhir.ch/ig/ch-core/4.0.1/StructureDefinition-ch-core-organization-epr.html">CH Core Organization EPR</a></p></div><p><b>identifier</b>: <a href="https://www.gs1.org/standards/id-keys/gln" title="Global Location Number">GLN</a>/7601000241115</p><p><b>name</b>: Gruppenpraxis Olten</p><p><b>telecom</b>: <a href="tel:+41555556677">+41555556677</a>, <a href="mailto:info@gruppenpraxis.ch">info@gruppenpraxis.ch</a>, <a href="http://www.gruppenpraxis.ch">http://www.gruppenpraxis.ch</a></p><p><b>address</b>: Gerbergasse 12 Olten 4600 CH </p></div>
        </text>
        <identifier>
          <system value="urn:oid:2.51.1.3"/>
          <value value="7601000241115"/>
        </identifier>
        <name value="Gruppenpraxis Olten"/>
        <telecom>
          <system value="phone"/>
          <value value="+41555556677"/>
          <use value="work"/>
        </telecom>
        <telecom>
          <system value="email"/>
          <value value="info@gruppenpraxis.ch"/>
          <use value="work"/>
        </telecom>
        <telecom>
          <system value="url"/>
          <value value="http://www.gruppenpraxis.ch"/>
          <use value="work"/>
        </telecom>
        <address>
          <line value="Gerbergasse 12"/>
          <city value="Olten"/>
          <postalCode value="4600"/>
          <country value="CH"/>
        </address>
      </Organization>
    </resource>
  </entry>
  <entry>
    <fullUrl value="http://example.com/fhir/PractitionerRole/MarcMustermannGruppenpraxis"/>
    <resource>
      <PractitionerRole>
        <id value="MarcMustermannGruppenpraxis"/>
        <meta>
          <profile value="http://fhir.ch/ig/ch-core/StructureDefinition/ch-core-practitionerrole"/>
        </meta>
        <text>
          <status value="generated"/><div xmlns="http://www.w3.org/1999/xhtml"><a name="PractitionerRole_MarcMustermannGruppenpraxis"> </a><p><b>Generated Narrative: PractitionerRole </b><a name="MarcMustermannGruppenpraxis"> </a><a name="hcMarcMustermannGruppenpraxis"> </a></p><div style="display: inline-block; background-color: #d9e0e7; padding: 6px; margin: 4px; border: 1px solid #8da1b4; border-radius: 5px; line-height: 60%"><p style="margin-bottom: 0px">ResourcePractitionerRole &quot;MarcMustermannGruppenpraxis&quot; </p><p style="margin-bottom: 0px">Profile: <a href="http://fhir.ch/ig/ch-core/4.0.1/StructureDefinition-ch-core-practitionerrole.html">CH Core PractitionerRole</a></p></div><p><b>practitioner</b>: See on this page: Practitioner/MarcMustermann</p><p><b>organization</b>: See on this page: Organization/Gruppenpraxis</p></div>
        </text>
        <practitioner>
          <reference value="Practitioner/MarcMustermann"/>
        </practitioner>
        <organization>
          <reference value="Organization/Gruppenpraxis"/>
        </organization>
      </PractitionerRole>
    </resource>
  </entry>
  <entry>
    <fullUrl value="http://example.com/fhir/Practitioner/EvaErlenmeyer"/>
    <resource>
      <Practitioner>
        <id value="EvaErlenmeyer"/>
        <meta>
          <profile value="http://fhir.ch/ig/ch-core/StructureDefinition/ch-core-practitioner"/>
        </meta>
        <text>
          <status value="generated"/><div xmlns="http://www.w3.org/1999/xhtml"><a name="Practitioner_EvaErlenmeyer"> </a><p><b>Generated Narrative: Practitioner </b><a name="EvaErlenmeyer"> </a><a name="hcEvaErlenmeyer"> </a></p><div style="display: inline-block; background-color: #d9e0e7; padding: 6px; margin: 4px; border: 1px solid #8da1b4; border-radius: 5px; line-height: 60%"><p style="margin-bottom: 0px">ResourcePractitioner &quot;EvaErlenmeyer&quot; </p><p style="margin-bottom: 0px">Profile: <a href="http://fhir.ch/ig/ch-core/4.0.1/StructureDefinition-ch-core-practitioner.html">CH Core Practitioner</a></p></div><p><b>identifier</b>: <a href="https://www.gs1.org/standards/id-keys/gln" title="Global Location Number">GLN</a>/7601000050717, <code>urn:oid:2.16.756.5.30.1.123.100.2.1.1</code>/A123315</p><p><b>name</b>: Eva Erlenmeyer (Official)</p><p><b>telecom</b>: ph: 033 444 55 66(WORK), <a href="mailto:eva.erlenmeyer@labor-pipette.ch">eva.erlenmeyer@labor-pipette.ch</a></p></div>
        </text>
        <identifier>
          <system value="urn:oid:2.51.1.3"/>
          <value value="7601000050717"/>
        </identifier>
        <identifier>
          <system value="urn:oid:2.16.756.5.30.1.123.100.2.1.1"/>
          <value value="A123315"/>
        </identifier>
        <name>
          <use value="official"/>
          <family value="Erlenmeyer"/>
          <given value="Eva"/>
          <prefix value="Dr. med.">
            <extension url="http://hl7.org/fhir/StructureDefinition/iso21090-EN-qualifier">
              <valueCode value="AC"/>
            </extension>
          </prefix>
        </name>
        <telecom>
          <system value="phone"/>
          <value value="033 444 55 66"/>
          <use value="work"/>
        </telecom>
        <telecom>
          <system value="email"/>
          <value value="eva.erlenmeyer@labor-pipette.ch"/>
          <use value="work"/>
        </telecom>
      </Practitioner>
    </resource>
  </entry>
  <entry>
    <fullUrl value="http://example.com/fhir/Organization/LaborPipette"/>
    <resource>
      <Organization>
        <id value="LaborPipette"/>
        <meta>
          <profile value="http://fhir.ch/ig/ch-core/StructureDefinition/ch-core-organization"/>
        </meta>
        <text>
          <status value="generated"/><div xmlns="http://www.w3.org/1999/xhtml"><a name="Organization_LaborPipette"> </a><p><b>Generated Narrative: Organization </b><a name="LaborPipette"> </a><a name="hcLaborPipette"> </a></p><div style="display: inline-block; background-color: #d9e0e7; padding: 6px; margin: 4px; border: 1px solid #8da1b4; border-radius: 5px; line-height: 60%"><p style="margin-bottom: 0px">ResourceOrganization &quot;LaborPipette&quot; </p><p style="margin-bottom: 0px">Profile: <a href="http://fhir.ch/ig/ch-core/4.0.1/StructureDefinition-ch-core-organization.html">CH Core Organization</a></p></div><p><b>identifier</b>: <a href="https://www.gs1.org/standards/id-keys/gln" title="Global Location Number">GLN</a>/7601000234407</p><p><b>name</b>: Labor Pipette</p><p><b>telecom</b>: <a href="tel:+41223345566">+41223345566</a>, <a href="mailto:info@labor-pipette.ch">info@labor-pipette.ch</a>, <a href="http://www.labor-pipette.ch">http://www.labor-pipette.ch</a></p><p><b>address</b>: Laborstrasse 23 Olten 4600 CH </p></div>
        </text>
        <identifier>
          <system value="urn:oid:2.51.1.3"/>
          <value value="7601000234407"/>
        </identifier>
        <name value="Labor Pipette"/>
        <telecom>
          <system value="phone"/>
          <value value="+41223345566"/>
          <use value="work"/>
        </telecom>
        <telecom>
          <system value="email"/>
          <value value="info@labor-pipette.ch"/>
          <use value="work"/>
        </telecom>
        <telecom>
          <system value="url"/>
          <value value="http://www.labor-pipette.ch"/>
          <use value="work"/>
        </telecom>
        <address>
          <line value="Laborstrasse 23"/>
          <city value="Olten"/>
          <postalCode value="4600"/>
          <country value="CH"/>
        </address>
      </Organization>
    </resource>
  </entry>
  <entry>
    <fullUrl value="http://example.com/fhir/PractitionerRole/EvaErlenmeyerLaborPipette"/>
    <resource>
      <PractitionerRole>
        <id value="EvaErlenmeyerLaborPipette"/>
        <meta>
          <profile value="http://fhir.ch/ig/ch-core/StructureDefinition/ch-core-practitionerrole"/>
        </meta>
        <text>
          <status value="generated"/><div xmlns="http://www.w3.org/1999/xhtml"><a name="PractitionerRole_EvaErlenmeyerLaborPipette"> </a><p><b>Generated Narrative: PractitionerRole </b><a name="EvaErlenmeyerLaborPipette"> </a><a name="hcEvaErlenmeyerLaborPipette"> </a></p><div style="display: inline-block; background-color: #d9e0e7; padding: 6px; margin: 4px; border: 1px solid #8da1b4; border-radius: 5px; line-height: 60%"><p style="margin-bottom: 0px">ResourcePractitionerRole &quot;EvaErlenmeyerLaborPipette&quot; </p><p style="margin-bottom: 0px">Profile: <a href="http://fhir.ch/ig/ch-core/4.0.1/StructureDefinition-ch-core-practitionerrole.html">CH Core PractitionerRole</a></p></div><p><b>identifier</b>: <code>urn:oid:2.16.756.5.30.1.123.100.2.1.1</code>/A123444</p><p><b>practitioner</b>: See on this page: Practitioner/EvaErlenmeyer</p><p><b>organization</b>: See on this page: Organization/LaborPipette</p></div>
        </text>
        <identifier>
          <system value="urn:oid:2.16.756.5.30.1.123.100.2.1.1"/>
          <value value="A123444"/>
        </identifier>
        <practitioner>
          <reference value="Practitioner/EvaErlenmeyer"/>
        </practitioner>
        <organization>
          <reference value="Organization/LaborPipette"/>
        </organization>
      </PractitionerRole>
    </resource>
  </entry>
  <entry>
    <fullUrl value="http://example.com/fhir/Practitioner/PeterPresto"/>
    <resource>
      <Practitioner>
        <id value="PeterPresto"/>
        <meta>
          <profile value="http://fhir.ch/ig/ch-core/StructureDefinition/ch-core-practitioner-epr"/>
        </meta>
        <text>
          <status value="generated"/><div xmlns="http://www.w3.org/1999/xhtml"><a name="Practitioner_PeterPresto"> </a><p><b>Generated Narrative: Practitioner </b><a name="PeterPresto"> </a><a name="hcPeterPresto"> </a></p><div style="display: inline-block; background-color: #d9e0e7; padding: 6px; margin: 4px; border: 1px solid #8da1b4; border-radius: 5px; line-height: 60%"><p style="margin-bottom: 0px">ResourcePractitioner &quot;PeterPresto&quot; </p><p style="margin-bottom: 0px">Profile: <a href="http://fhir.ch/ig/ch-core/4.0.1/StructureDefinition-ch-core-practitioner-epr.html">CH Core Practitioner EPR</a></p></div><p><b>identifier</b>: <a href="https://www.gs1.org/standards/id-keys/gln" title="Global Location Number">GLN</a>/7601022050702, <code>urn:oid:2.16.756.5.30.1.123.100.2.1.1</code>/A123303</p><p><b>name</b>: Peter Presto (Official)</p><p><b>telecom</b>: ph: 032 333 22 33(WORK), <a href="mailto:peter.presto@arztpraxis.ch">peter.presto@arztpraxis.ch</a></p></div>
        </text>
        <identifier>
          <system value="urn:oid:2.51.1.3"/>
          <value value="7601022050702"/>
        </identifier>
        <identifier>
          <system value="urn:oid:2.16.756.5.30.1.123.100.2.1.1"/>
          <value value="A123303"/>
        </identifier>
        <name>
          <use value="official"/>
          <family value="Presto"/>
          <given value="Peter"/>
          <prefix value="Dr. med.">
            <extension url="http://hl7.org/fhir/StructureDefinition/iso21090-EN-qualifier">
              <valueCode value="AC"/>
            </extension>
          </prefix>
        </name>
        <telecom>
          <system value="phone"/>
          <value value="032 333 22 33"/>
          <use value="work"/>
        </telecom>
        <telecom>
          <system value="email"/>
          <value value="peter.presto@arztpraxis.ch"/>
          <use value="work"/>
        </telecom>
      </Practitioner>
    </resource>
  </entry>
  <entry>
    <fullUrl value="http://example.com/fhir/PractitionerRole/PeterPrestoGruppenpraxis"/>
    <resource>
      <PractitionerRole>
        <id value="PeterPrestoGruppenpraxis"/>
        <meta>
          <profile value="http://fhir.ch/ig/ch-core/StructureDefinition/ch-core-practitionerrole"/>
        </meta>
        <text>
          <status value="generated"/><div xmlns="http://www.w3.org/1999/xhtml"><a name="PractitionerRole_PeterPrestoGruppenpraxis"> </a><p><b>Generated Narrative: PractitionerRole </b><a name="PeterPrestoGruppenpraxis"> </a><a name="hcPeterPrestoGruppenpraxis"> </a></p><div style="display: inline-block; background-color: #d9e0e7; padding: 6px; margin: 4px; border: 1px solid #8da1b4; border-radius: 5px; line-height: 60%"><p style="margin-bottom: 0px">ResourcePractitionerRole &quot;PeterPrestoGruppenpraxis&quot; </p><p style="margin-bottom: 0px">Profile: <a href="http://fhir.ch/ig/ch-core/4.0.1/StructureDefinition-ch-core-practitionerrole.html">CH Core PractitionerRole</a></p></div><p><b>practitioner</b>: See on this page: Practitioner/PeterPresto</p><p><b>organization</b>: See on this page: Organization/Gruppenpraxis</p></div>
        </text>
        <practitioner>
          <reference value="Practitioner/PeterPresto"/>
        </practitioner>
        <organization>
          <reference value="Organization/Gruppenpraxis"/>
        </organization>
      </PractitionerRole>
    </resource>
  </entry>
  <entry>
    <fullUrl value="http://example.com/fhir/Coverage/HealthInsuranceCard"/>
    <resource>
      <Coverage>
        <id value="HealthInsuranceCard"/>
        <meta>
          <profile value="http://fhir.ch/ig/ch-orf/StructureDefinition/ch-orf-coverage"/>
        </meta>
        <text>
          <status value="generated"/><div xmlns="http://www.w3.org/1999/xhtml"><a name="Coverage_HealthInsuranceCard"> </a><p><b>Generated Narrative: Coverage </b><a name="HealthInsuranceCard"> </a><a name="hcHealthInsuranceCard"> </a></p><div style="display: inline-block; background-color: #d9e0e7; padding: 6px; margin: 4px; border: 1px solid #8da1b4; border-radius: 5px; line-height: 60%"><p style="margin-bottom: 0px">ResourceCoverage &quot;HealthInsuranceCard&quot; </p><p style="margin-bottom: 0px">Profile: <a href="http://fhir.ch/ig/ch-orf/2.0.1/StructureDefinition-ch-orf-coverage.html">CH ORF Coverage</a></p></div><p><b>identifier</b>: Insurance Card Number/A123456780</p><p><b>status</b>: active</p><p><b>type</b>: According to KVG <span style="background: LightGoldenRodYellow; margin: 4px; border: 1px solid khaki"> (<a href="http://fhir.ch/ig/ch-orf/2.0.1/CodeSystem-ch-orf-cs-coveragetype.html">Coverage Type</a>#KVG)</span></p><p><b>subscriber</b>: See on this page: Patient/FranzMuster</p><p><b>beneficiary</b>: See on this page: Patient/FranzMuster</p><p><b>period</b>: ?? --&gt; 2024-12-31</p><p><b>payor</b>: <span><code>http://ehic.com/insurer</code>/123456789</span></p></div>
        </text>
        <identifier>
          <type>
            <coding>
              <system value="http://fhir.ch/ig/ch-orf/CodeSystem/ch-orf-cs-coverageidentifiertype"/>
              <code value="VeKa"/>
            </coding>
          </type>
          <system value="http://ehic.com/insurer/123456789/member"/>
          <value value="A123456780"/>
        </identifier>
        <status value="active"/>
        <type>
          <coding>
            <system value="http://fhir.ch/ig/ch-orf/CodeSystem/ch-orf-cs-coveragetype"/>
            <code value="KVG"/>
            <display value="According to KVG"/>
          </coding>
        </type>
        <subscriber>
          <reference value="Patient/FranzMuster"/>
        </subscriber>
        <beneficiary>
          <reference value="Patient/FranzMuster"/>
        </beneficiary>
        <period>
          <end value="2024-12-31"/>
        </period>
        <payor>
          <identifier>
            <system value="http://ehic.com/insurer"/>
            <value value="123456789"/>
          </identifier>
        </payor>
      </Coverage>
    </resource>
  </entry>
  <entry>
    <fullUrl value="http://example.com/fhir/Specimen/Serum"/>
    <resource>
      <Specimen>
        <id value="Serum"/>
        <text>
          <status value="generated"/><div xmlns="http://www.w3.org/1999/xhtml"><a name="Specimen_Serum"> </a><p><b>Generated Narrative: Specimen </b><a name="Serum"> </a><a name="hcSerum"> </a></p><div style="display: inline-block; background-color: #d9e0e7; padding: 6px; margin: 4px; border: 1px solid #8da1b4; border-radius: 5px; line-height: 60%"><p style="margin-bottom: 0px">ResourceSpecimen &quot;Serum&quot; </p></div><p><b>identifier</b>: 48736-12345-75465</p><p><b>accessionIdentifier</b>: 4e88a-12345-dd888</p><p><b>status</b>: available</p><p><b>type</b>: Serum specimen (specimen) <span style="background: LightGoldenRodYellow; margin: 4px; border: 1px solid khaki"> (<a href="https://browser.ihtsdotools.org/">SNOMED CT</a>#119364003)</span></p><p><b>subject</b>: See on this page: Patient/BeatBorer</p><h3>Collections</h3><table class="grid"><tr><td style="display: none">-</td><td><b>Collector</b></td><td><b>Collected[x]</b></td><td><b>BodySite</b></td><td><b>FastingStatus[x]</b></td></tr><tr><td style="display: none">*</td><td>See on this page: Practitioner/MarcMustermann</td><td>2015-08-16 06:40:17+0000</td><td>Structure of median cubital vein (body structure) <span style="background: LightGoldenRodYellow; margin: 4px; border: 1px solid khaki"> (<a href="https://browser.ihtsdotools.org/">SNOMED CT</a>#49852007)</span></td><td>Patient was fasting prior to the procedure. <span style="background: LightGoldenRodYellow; margin: 4px; border: 1px solid khaki"> (<a href="http://terminology.hl7.org/5.1.0/CodeSystem-v2-0916.html">relevantClincialInformation</a>#F)</span></td></tr></table><h3>Containers</h3><table class="grid"><tr><td style="display: none">-</td><td><b>Type</b></td></tr><tr><td style="display: none">*</td><td>General specimen container (physical object) <span style="background: LightGoldenRodYellow; margin: 4px; border: 1px solid khaki"> (<a href="https://browser.ihtsdotools.org/">SNOMED CT</a>#706053007)</span></td></tr></table></div>
        </text>
        <identifier>
          <value value="48736-12345-75465"/>
        </identifier>
        <accessionIdentifier>
          <value value="4e88a-12345-dd888"/>
        </accessionIdentifier>
        <status value="available"/>
        <type>
          <coding>
            <system value="http://snomed.info/sct"/>
            <code value="119364003"/>
            <display value="Serum specimen (specimen)"/>
          </coding>
        </type>
        <subject>
          <reference value="Patient/BeatBorer"/>
        </subject>
        <collection>
          <collector>
            <reference value="Practitioner/MarcMustermann"/>
          </collector>
          <collectedDateTime value="2015-08-16T06:40:17Z"/>
          <bodySite>
            <coding>
              <system value="http://snomed.info/sct"/>
              <code value="49852007"/>
              <display value="Structure of median cubital vein (body structure)"/>
            </coding>
          </bodySite>
          <fastingStatusCodeableConcept>
            <coding>
              <system value="http://terminology.hl7.org/CodeSystem/v2-0916"/>
              <code value="F"/>
              <display value="Patient was fasting prior to the procedure."/>
            </coding>
          </fastingStatusCodeableConcept>
        </collection>
        <container>
          <type>
            <coding>
              <system value="http://snomed.info/sct"/>
              <code value="706053007"/>
              <display value="General specimen container (physical object)"/>
            </coding>
          </type>
        </container>
      </Specimen>
    </resource>
  </entry>
  <entry>
    <fullUrl value="http://example.com/fhir/Questionnaire/LabOrder-form"/>
    <resource>
      <Questionnaire>
        <id value="LabOrder-form"/>
        <meta>
          <versionId value="1"/>
          <lastUpdated value="2022-10-21T20:17:53.340+00:00"/>
          <profile value="http://fhir.ch/ig/ch-orf/StructureDefinition/ch-orf-questionnaire"/>
          <profile value="http://hl7.org/fhir/uv/sdc/StructureDefinition/sdc-questionnaire"/>
          <profile value="http://hl7.org/fhir/uv/sdc/StructureDefinition/sdc-questionnaire-extr-smap"/>
          <profile value="http://hl7.org/fhir/uv/sdc/StructureDefinition/sdc-questionnaire-pop-exp"/>
        </meta>
        <text>
          <status value="extensions"/><div xmlns="http://www.w3.org/1999/xhtml"><a name="Questionnaire_LabOrder-form"> </a><p><b>Generated Narrative: Questionnaire </b><a name="LabOrder-form"> </a><a name="hcLabOrder-form"> </a></p><div style="display: inline-block; background-color: #d9e0e7; padding: 6px; margin: 4px; border: 1px solid #8da1b4; border-radius: 5px; line-height: 60%"><p style="margin-bottom: 0px">ResourceQuestionnaire &quot;LabOrder-form&quot; Version&quot;1&quot; Updated&quot;2022-10-21 20:17:53+0000&quot; </p><p style="margin-bottom: 0px">Profiles: <a href="http://fhir.ch/ig/ch-orf/2.0.1/StructureDefinition-ch-orf-questionnaire.html">CH ORF Questionnaire</a>, <a href="http://hl7.org/fhir/uv/sdc/STU3/StructureDefinition-sdc-questionnaire.html">SDCBaseQuestionnaire</a>, <a href="http://hl7.org/fhir/uv/sdc/STU3/StructureDefinition-sdc-questionnaire-extr-smap.html">Extractable Questionnaire - StructureMap</a>, <a href="http://hl7.org/fhir/uv/sdc/STU3/StructureDefinition-sdc-questionnaire-pop-exp.html">Populatable Questionnaire - Expression</a></p></div><p><b>Target structure map</b>: <a href="http://fhir.ch/ig/ch-orf/2.0.1/StructureMap-OrfQrToBundle.html">OrfQrToBundle</a></p><p><b>Source structure map</b>: <a href="http://fhir.ch/ig/ch-orf/StructureMap/OrfPrepopBundleToQr">http://fhir.ch/ig/ch-orf/StructureMap/OrfPrepopBundleToQr</a></p><blockquote><p><b>Launch context resources</b></p><blockquote><p><b>url</b></p><code>name</code></blockquote><p><b>value</b>: Patient (Details: Launch Context code patient  = ' Patient ', stated as ' null ')</p><blockquote><p><b>url</b></p><code>type</code></blockquote><p><b>value</b>: Patient</p></blockquote><blockquote><p><b>Launch context resources</b></p><blockquote><p><b>url</b></p><code>name</code></blockquote><p><b>value</b>: User (Details: Launch Context code user  = ' User ', stated as ' User ')</p><blockquote><p><b>url</b></p><code>type</code></blockquote><p><b>value</b>: Practitioner</p><blockquote><p><b>url</b></p><code>description</code></blockquote><p><b>value</b>: The practitioner that is to be used to pre-populate the form</p></blockquote><p><b>url</b>: <code>http://fhir.ch/ig/ch-lab-order/Questionnaire/LabOrder-form</code></p><p><b>version</b>: 1.0.0-assembled</p><p><b>name</b>: LabOrderFormCaseStudies</p><p><b>title</b>: Questionnaire Lab Order Case Studies</p><p><b>status</b>: active</p><p><b>subjectType</b>: Patient</p><p><b>date</b>: 2022-10-10</p><p><b>publisher</b>: HL7 Switzerland</p><p><b>contact</b>: HL7 Switzerland: <a href="https://www.hl7.ch">https://www.hl7.ch</a>, Marcel Hanselmann: <a href="mailto:laborprojektgruppe@gmail.com">laborprojektgruppe@gmail.com</a></p><p><b>jurisdiction</b>: Switzerland <span style="background: LightGoldenRodYellow; margin: 4px; border: 1px solid khaki"> (<a href="http://terminology.hl7.org/5.4.0/CodeSystem-ISO3166Part1.html">ISO 3166-1 Codes for the representation of names of countries and their subdivisions — Part 1: Country code</a>#CH)</span></p><p><b>copyright</b>: CC0-1.0</p><blockquote><p><b>item</b></p><p><b>linkId</b>: order</p><p><b>text</b>: Auftrag</p><p><b>type</b>: group</p><p><b>required</b>: true</p><blockquote><p><b>item</b></p><p><b>linkId</b>: order.placerOrderIdentifier</p><p><b>text</b>: Auftragsnummer des Auftraggebers</p><p><b>type</b>: string</p></blockquote><blockquote><p><b>item</b></p><p><b>Questionnaire Hidden</b>: true</p><p><b>linkId</b>: order.placerOrderIdentifierDomain</p><p><b>text</b>: Identifier Domain der Auftragsnummer des Auftraggebers</p><p><b>type</b>: string</p></blockquote><blockquote><p><b>item</b></p><p><b>linkId</b>: order.fillerOrderIdentifier</p><p><b>text</b>: Auftragsnummer des Auftragsempfängers</p><p><b>type</b>: string</p></blockquote><blockquote><p><b>item</b></p><p><b>Questionnaire Hidden</b>: true</p><p><b>linkId</b>: order.fillerOrderIdentifierDomain</p><p><b>text</b>: Identifier Domain der Auftragsnummer des Auftragsempfängers</p><p><b>type</b>: string</p></blockquote><blockquote><p><b>item</b></p><p><b>Questionnaire Hidden</b>: true</p><p><b>linkId</b>: order.precedentDocumentIdentifier</p><p><b>text</b>: Identifier des Vorgängerdokuments</p><p><b>type</b>: string</p></blockquote><blockquote><p><b>item</b></p><p><b>linkId</b>: order.notificationContactDocument</p><p><b>text</b>: Dringender Benachrichtigungskontakt für dieses Dokument</p><p><b>type</b>: group</p><blockquote><p><b>item</b></p></blockquote></blockquote><blockquote><p><b>item</b></p><p><b>linkId</b>: order.notificationContactDocumentResponse</p><p><b>text</b>: Dringender Benachrichtigungskontakt für die Antwort auf dieses Dokument</p><p><b>type</b>: group</p><blockquote><p><b>item</b></p></blockquote></blockquote><blockquote><p><b>item</b></p><p><b>linkId</b>: order.priority</p><p><b>text</b>: Auftragspriorität</p><p><b>type</b>: choice</p><blockquote><p><b>answerOption</b></p></blockquote><blockquote><p><b>answerOption</b></p></blockquote><blockquote><p><b>answerOption</b></p></blockquote><blockquote><p><b>answerOption</b></p></blockquote></blockquote></blockquote><blockquote><p><b>item</b></p><p><b>linkId</b>: receiver</p><p><b>text</b>: Empfänger</p><p><b>type</b>: group</p><blockquote><p><b>item</b></p><p><b>linkId</b>: receiver.practitioner</p><p><b>text</b>: Empfangende Person</p><p><b>type</b>: group</p><blockquote><p><b>item</b></p></blockquote><blockquote><p><b>item</b></p></blockquote><blockquote><p><b>item</b></p></blockquote><blockquote><p><b>item</b></p></blockquote><blockquote><p><b>item</b></p></blockquote><blockquote><p><b>item</b></p></blockquote><blockquote><p><b>item</b></p></blockquote></blockquote><blockquote><p><b>item</b></p><p><b>linkId</b>: receiver.organization</p><p><b>text</b>: Empfangende Organisation</p><p><b>type</b>: group</p><blockquote><p><b>item</b></p></blockquote><blockquote><p><b>item</b></p></blockquote><blockquote><p><b>item</b></p></blockquote><blockquote><p><b>item</b></p></blockquote><blockquote><p><b>item</b></p></blockquote><blockquote><p><b>item</b></p></blockquote></blockquote></blockquote><blockquote><p><b>item</b></p><p><b>linkId</b>: patient</p><p><b>text</b>: Patient</p><p><b>type</b>: group</p><p><b>required</b>: true</p><blockquote><p><b>item</b></p><p><b>linkId</b>: patient.familyName</p><p><b>text</b>: Name</p><p><b>type</b>: string</p></blockquote><blockquote><p><b>item</b></p><p><b>linkId</b>: patient.maidenName</p><p><b>text</b>: Ledigname</p><p><b>type</b>: string</p></blockquote><blockquote><p><b>item</b></p><p><b>linkId</b>: patient.givenName</p><p><b>text</b>: Vorname</p><p><b>type</b>: string</p></blockquote><blockquote><p><b>item</b></p><p><b>linkId</b>: patient.localPid</p><p><b>text</b>: Lokale Patienten-ID</p><p><b>type</b>: string</p></blockquote><blockquote><p><b>item</b></p><p><b>linkId</b>: patient.birthDate</p><p><b>text</b>: Geburtsdatum</p><p><b>type</b>: date</p></blockquote><blockquote><p><b>item</b></p><p><b>linkId</b>: patient.gender</p><p><b>text</b>: Geschlecht</p><p><b>type</b>: choice</p><blockquote><p><b>answerOption</b></p></blockquote><blockquote><p><b>answerOption</b></p></blockquote><blockquote><p><b>answerOption</b></p></blockquote></blockquote><blockquote><p><b>item</b></p><p><b>linkId</b>: patient.maritalStatus</p><p><b>definition</b>: <a href="http://fhir.ch/ig/ch-core/4.0.1/StructureDefinition-ch-core-patient.html">CH Core Patient</a></p><p><b>text</b>: Zivilstand</p><p><b>type</b>: choice</p><blockquote><p><b>answerOption</b></p></blockquote><blockquote><p><b>answerOption</b></p></blockquote><blockquote><p><b>answerOption</b></p></blockquote><blockquote><p><b>answerOption</b></p></blockquote><blockquote><p><b>answerOption</b></p></blockquote><blockquote><p><b>answerOption</b></p></blockquote><blockquote><p><b>answerOption</b></p></blockquote><blockquote><p><b>answerOption</b></p></blockquote></blockquote><blockquote><p><b>item</b></p><p><b>linkId</b>: patient.phone</p><p><b>text</b>: Telefon</p><p><b>type</b>: string</p></blockquote><blockquote><p><b>item</b></p><p><b>linkId</b>: patient.email</p><p><b>text</b>: E-Mail</p><p><b>type</b>: string</p></blockquote><blockquote><p><b>item</b></p><p><b>linkId</b>: patient.streetAddressLine</p><p><b>text</b>: Strasse, Hausnummer, Postfach etc.</p><p><b>type</b>: string</p><p><b>repeats</b>: true</p></blockquote><blockquote><p><b>item</b></p><p><b>linkId</b>: patient.postalCode</p><p><b>text</b>: PLZ</p><p><b>type</b>: string</p></blockquote><blockquote><p><b>item</b></p><p><b>linkId</b>: patient.city</p><p><b>text</b>: Ort</p><p><b>type</b>: string</p></blockquote><blockquote><p><b>item</b></p><p><b>linkId</b>: patient.country</p><p><b>text</b>: Land</p><p><b>type</b>: string</p></blockquote><blockquote><p><b>item</b></p><p><b>linkId</b>: patient.contactperson</p><p><b>definition</b>: <a href="http://fhir.ch/ig/ch-core/4.0.1/StructureDefinition-ch-core-patient.html">CH Core Patient</a></p><p><b>text</b>: Kontaktperson</p><p><b>type</b>: group</p><blockquote><p><b>item</b></p></blockquote><blockquote><p><b>item</b></p></blockquote><blockquote><p><b>item</b></p></blockquote><blockquote><p><b>item</b></p></blockquote><blockquote><p><b>item</b></p></blockquote></blockquote></blockquote><blockquote><p><b>item</b></p><p><b>linkId</b>: sender</p><p><b>text</b>: Absender</p><p><b>type</b>: group</p><p><b>required</b>: true</p><blockquote><p><b>item</b></p><p><b>linkId</b>: sender.author</p><p><b>text</b>: Verantwortlicher</p><p><b>type</b>: group</p><p><b>required</b>: true</p><blockquote><p><b>item</b></p></blockquote><blockquote><p><b>item</b></p></blockquote></blockquote><blockquote><p><b>item</b></p><p><b>linkId</b>: sender.dataenterer</p><p><b>text</b>: Erfasser</p><p><b>type</b>: group</p><blockquote><p><b>item</b></p></blockquote></blockquote></blockquote><blockquote><p><b>item</b></p><p><b>linkId</b>: receiverCopies</p><p><b>text</b>: Kopieempfänger</p><p><b>type</b>: group</p><blockquote><p><b>item</b></p><p><b>linkId</b>: receiverCopy</p><p><b>definition</b>: <a href="http://fhir.ch/ig/ch-core/4.0.1/StructureDefinition-ch-core-practitionerrole.html">CH Core PractitionerRole</a></p><p><b>text</b>: Kopieempfangende Organisation oder Person</p><p><b>type</b>: group</p><p><b>repeats</b>: true</p><blockquote><p><b>item</b></p></blockquote><blockquote><p><b>item</b></p></blockquote><blockquote><p><b>item</b></p></blockquote><blockquote><p><b>item</b></p></blockquote><blockquote><p><b>item</b></p></blockquote><blockquote><p><b>item</b></p></blockquote><blockquote><p><b>item</b></p></blockquote><blockquote><p><b>item</b></p></blockquote><blockquote><p><b>item</b></p></blockquote><blockquote><p><b>item</b></p></blockquote></blockquote><blockquote><p><b>item</b></p><p><b>linkId</b>: receiverCopy.patient</p><p><b>definition</b>: <a href="http://fhir.ch/ig/ch-core/4.0.1/StructureDefinition-ch-core-patient.html">CH Core Patient</a></p><p><b>text</b>: Patient selbst</p><p><b>type</b>: boolean</p></blockquote><blockquote><p><b>item</b></p><p><b>linkId</b>: receiverCopy.relatedPerson</p><p><b>definition</b>: <a href="http://hl7.org/fhir/R4/relatedperson.html">RelatedPerson</a></p><p><b>text</b>: Andere Person</p><p><b>type</b>: group</p><p><b>repeats</b>: true</p><blockquote><p><b>item</b></p></blockquote><blockquote><p><b>item</b></p></blockquote><blockquote><p><b>item</b></p></blockquote><blockquote><p><b>item</b></p></blockquote><blockquote><p><b>item</b></p></blockquote><blockquote><p><b>item</b></p></blockquote><blockquote><p><b>item</b></p></blockquote><blockquote><p><b>item</b></p></blockquote></blockquote></blockquote><blockquote><p><b>item</b></p><p><b>linkId</b>: consent</p><p><b>definition</b>: <a href="http://fhir.ch/ig/ch-lab-order/StructureDefinition/ch-lab-order-servicerequest#ServiceRequest.supportingInfo">http://fhir.ch/ig/ch-lab-order/StructureDefinition/ch-lab-order-servicerequest#ServiceRequest.supportingInfo</a></p><p><b>text</b>: Einverständniserklärung</p><p><b>type</b>: group</p><h3>Items</h3><table class="grid"><tr><td style="display: none">-</td><td><b>LinkId</b></td><td><b>Text</b></td><td><b>Type</b></td></tr><tr><td style="display: none">*</td><td>consent.treatment</td><td>Einverständnis des Patienten zur Behandlung</td><td>string</td></tr><tr><td style="display: none">*</td><td>consent.patientPrivacy</td><td>Einverständnis des Patienten zum Datenschutz</td><td>string</td></tr><tr><td style="display: none">*</td><td>consent.research</td><td>Einverständnis des Patienten zur Forschung</td><td>string</td></tr><tr><td style="display: none">*</td><td>consent.advancedCareDirective</td><td>Patientenverfügung</td><td>string</td></tr></table></blockquote><blockquote><p><b>item</b></p><p><b>linkId</b>: coverage</p><p><b>definition</b>: <a href="http://fhir.ch/ig/ch-lab-order/StructureDefinition/ch-lab-order-servicerequest#ServiceRequest.insurance">http://fhir.ch/ig/ch-lab-order/StructureDefinition/ch-lab-order-servicerequest#ServiceRequest.insurance</a></p><p><b>text</b>: Kostenträger</p><p><b>type</b>: group</p><h3>Items</h3><table class="grid"><tr><td style="display: none">-</td><td><b>LinkId</b></td><td><b>Text</b></td><td><b>Type</b></td></tr><tr><td style="display: none">*</td><td>coverage.uvg</td><td>Unfallversicherung (nach UVG)</td><td>string</td></tr><tr><td style="display: none">*</td><td>coverage.kvg</td><td>Grundversicherung (nach KVG)</td><td>string</td></tr><tr><td style="display: none">*</td><td>coverage.vvg</td><td>Zusatzversicherung (nach VVG)</td><td>string</td></tr><tr><td style="display: none">*</td><td>coverage.vvgOther</td><td>Andere (nach VVG)</td><td>string</td></tr></table></blockquote><blockquote><p><b>item</b></p><p><b>linkId</b>: previousResult</p><p><b>definition</b>: <a href="http://fhir.ch/ig/ch-lab-order/StructureDefinition/ch-lab-order-servicerequest#ServiceRequest.supportingInfo">http://fhir.ch/ig/ch-lab-order/StructureDefinition/ch-lab-order-servicerequest#ServiceRequest.supportingInfo</a></p><p><b>text</b>: Vorheriges Untersuchungsresultat</p><p><b>type</b>: group</p><h3>Items</h3><table class="grid"><tr><td style="display: none">-</td><td><b>LinkId</b></td><td><b>Text</b></td><td><b>Type</b></td><td><b>Repeats</b></td></tr><tr><td style="display: none">*</td><td>previousResult.result</td><td>Untersuchungsresultat</td><td>string</td><td>true</td></tr></table></blockquote><blockquote><p><b>item</b></p><p><b>linkId</b>: casestudy</p><p><b>text</b>: Case Studies</p><p><b>type</b>: group</p><blockquote><p><b>item</b></p><p><b>linkId</b>: 1-tvt</p><p><b>text</b>: Tiefe Venenthrombose Questionnaire</p><p><b>type</b>: boolean</p><blockquote><p><b>item</b></p></blockquote></blockquote><blockquote><p><b>item</b></p><p><b>linkId</b>: 2-pertussis</p><p><b>text</b>: Abklärung Husten Questionnaire</p><p><b>type</b>: boolean</p><blockquote><p><b>item</b></p></blockquote></blockquote><blockquote><p><b>item</b></p><p><b>linkId</b>: 3-gyn</p><p><b>text</b>: Gynäkologische Vorsorge Questionnaire</p><p><b>type</b>: boolean</p><blockquote><p><b>item</b></p></blockquote></blockquote><blockquote><p><b>item</b></p><p><b>linkId</b>: 4-sepis</p><p><b>text</b>: Abklärung Sepsis Questionnaire</p><p><b>type</b>: boolean</p><blockquote><p><b>item</b></p></blockquote></blockquote><blockquote><p><b>item</b></p><p><b>linkId</b>: 5-biol-monit</p><p><b>text</b>: Biologisches Monitoring Questionnaire</p><p><b>type</b>: boolean</p><blockquote><p><b>item</b></p></blockquote></blockquote><blockquote><p><b>item</b></p><p><b>linkId</b>: 6-histopath</p><p><b>text</b>: Pathologische Untersuchung einer Gewebsprobe Questionnaire</p><p><b>type</b>: boolean</p><blockquote><p><b>item</b></p></blockquote></blockquote></blockquote><blockquote><p><b>item</b></p><p><b>linkId</b>: lab-compendiums</p><p><b>text</b>: Labor Compendien</p><p><b>type</b>: group</p><blockquote><p><b>item</b></p><p><b>linkId</b>: lab-compendium.Gantenbein</p><p><b>definition</b>: <a href="http://fhir.ch/ig/ch-lab-order/Composition/Gantenbein-Catalog-Header">http://fhir.ch/ig/ch-lab-order/Composition/Gantenbein-Catalog-Header</a></p><p><b>text</b>: Gantenbein Compendium</p><p><b>type</b>: boolean</p><blockquote><p><b>item</b></p></blockquote></blockquote><blockquote><p><b>item</b></p><p><b>linkId</b>: lab-compendium.Pipette</p><p><b>definition</b>: <a href="http://fhir.ch/ig/ch-lab-order/Composition/Pipette-Catalog-Header">http://fhir.ch/ig/ch-lab-order/Composition/Pipette-Catalog-Header</a></p><p><b>text</b>: Pipette Compendium</p><p><b>type</b>: boolean</p><blockquote><p><b>item</b></p></blockquote></blockquote><blockquote><p><b>item</b></p><p><b>linkId</b>: lab-compendium.Schildknecht</p><p><b>definition</b>: <a href="http://fhir.ch/ig/ch-lab-order/Composition/Schildknecht-Catalog-Header">http://fhir.ch/ig/ch-lab-order/Composition/Schildknecht-Catalog-Header</a></p><p><b>text</b>: Schildknecht Compendium</p><p><b>type</b>: boolean</p><blockquote><p><b>item</b></p></blockquote></blockquote></blockquote></div>
        </text>
        <extension url="http://hl7.org/fhir/uv/sdc/StructureDefinition/sdc-questionnaire-targetStructureMap">
          <valueCanonical value="http://fhir.ch/ig/ch-orf/StructureMap/OrfQrToBundle"/>
        </extension>
        <extension url="http://hl7.org/fhir/uv/sdc/StructureDefinition/sdc-questionnaire-sourceStructureMap">
          <valueCanonical value="http://fhir.ch/ig/ch-orf/StructureMap/OrfPrepopBundleToQr"/>
        </extension>
        <extension url="http://hl7.org/fhir/uv/sdc/StructureDefinition/sdc-questionnaire-launchContext">
          <extension url="name">
            <valueCoding>
              <system value="http://hl7.org/fhir/uv/sdc/CodeSystem/launchContext"/>
              <code value="patient"/>
            </valueCoding>
          </extension>
          <extension url="type">
            <valueCode value="Patient"/>
          </extension>
        </extension>
        <extension url="http://hl7.org/fhir/uv/sdc/StructureDefinition/sdc-questionnaire-launchContext">
          <extension url="name">
            <valueCoding>
              <system value="http://hl7.org/fhir/uv/sdc/CodeSystem/launchContext"/>
              <code value="user"/>
              <display value="User"/>
            </valueCoding>
          </extension>
          <extension url="type">
            <valueCode value="Practitioner"/>
          </extension>
          <extension url="description">
            <valueString value="The practitioner that is to be used to pre-populate the form"/>
          </extension>
        </extension>
        <url value="http://fhir.ch/ig/ch-lab-order/Questionnaire/LabOrder-form"/>
        <version value="1.0.0-assembled"/>
        <name value="LabOrderFormCaseStudies"/>
        <title value="Questionnaire Lab Order Case Studies"/>
        <status value="active"/>
        <subjectType value="Patient"/>
        <date value="2022-10-10"/>
        <publisher value="HL7 Switzerland"/>
        <contact>
          <name value="HL7 Switzerland"/>
          <telecom>
            <system value="url"/>
            <value value="https://www.hl7.ch"/>
          </telecom>
        </contact>
        <contact>
          <name value="Marcel Hanselmann"/>
          <telecom>
            <system value="email"/>
            <value value="laborprojektgruppe@gmail.com"/>
            <use value="work"/>
          </telecom>
        </contact>
        <jurisdiction>
          <coding>
            <system value="urn:iso:std:iso:3166"/>
            <code value="CH"/>
          </coding>
        </jurisdiction>
        <copyright value="CC0-1.0"/>
        <item>
          <linkId value="order"/>
          <text value="Auftrag"/>
          <type value="group"/>
          <required value="true"/>
          <item>
            <linkId value="order.placerOrderIdentifier"/>
            <text value="Auftragsnummer des Auftraggebers"/>
            <type value="string"/>
          </item>
          <item>
            <extension url="http://hl7.org/fhir/StructureDefinition/questionnaire-hidden">
              <valueBoolean value="true"/>
            </extension>
            <linkId value="order.placerOrderIdentifierDomain"/>
            <text value="Identifier Domain der Auftragsnummer des Auftraggebers"/>
            <type value="string"/>
          </item>
          <item>
            <linkId value="order.fillerOrderIdentifier"/>
            <text value="Auftragsnummer des Auftragsempfängers"/>
            <type value="string"/>
          </item>
          <item>
            <extension url="http://hl7.org/fhir/StructureDefinition/questionnaire-hidden">
              <valueBoolean value="true"/>
            </extension>
            <linkId value="order.fillerOrderIdentifierDomain"/>
            <text value="Identifier Domain der Auftragsnummer des Auftragsempfängers"/>
            <type value="string"/>
          </item>
          <item>
            <extension url="http://hl7.org/fhir/StructureDefinition/questionnaire-hidden">
              <valueBoolean value="true"/>
            </extension>
            <linkId value="order.precedentDocumentIdentifier"/>
            <text value="Identifier des Vorgängerdokuments"/>
            <type value="string"/>
          </item>
          <item>
            <linkId value="order.notificationContactDocument"/>
            <text value="Dringender Benachrichtigungskontakt für dieses Dokument"/>
            <type value="group"/>
            <item>
              <linkId value="order.notificationContactDocument.practitioner"/>
              <text value="Zu benachrichtigende Person"/>
              <type value="group"/>
              <item>
                <linkId value="order.notificationContactDocument.practitioner.title"/>
                <text value="Titel"/>
                <type value="string"/>
              </item>
              <item>
                <linkId value="order.notificationContactDocument.practitioner.familyName"/>
                <text value="Name"/>
                <type value="string"/>
              </item>
              <item>
                <linkId value="order.notificationContactDocument.practitioner.givenName"/>
                <text value="Vorname"/>
                <type value="string"/>
              </item>
              <item>
                <linkId value="order.notificationContactDocument.practitioner.phone"/>
                <text value="Telefon"/>
                <type value="string"/>
              </item>
              <item>
                <linkId value="order.notificationContactDocument.practitioner.email"/>
                <text value="E-Mail"/>
                <type value="string"/>
              </item>
            </item>
          </item>
          <item>
            <linkId value="order.notificationContactDocumentResponse"/>
            <text value="Dringender Benachrichtigungskontakt für die Antwort auf dieses Dokument"/>
            <type value="group"/>
            <item>
              <linkId value="order.notificationContactDocumentResponse.practitioner"/>
              <text value="Zu benachrichtigende Person"/>
              <type value="group"/>
              <item>
                <linkId value="order.notificationContactDocumentResponse.practitioner.title"/>
                <text value="Titel"/>
                <type value="string"/>
              </item>
              <item>
                <linkId value="order.notificationContactDocumentResponse.practitioner.familyName"/>
                <text value="Name"/>
                <type value="string"/>
              </item>
              <item>
                <linkId value="order.notificationContactDocumentResponse.practitioner.givenName"/>
                <text value="Vorname"/>
                <type value="string"/>
              </item>
              <item>
                <linkId value="order.notificationContactDocumentResponse.practitioner.phone"/>
                <text value="Telefon"/>
                <type value="string"/>
              </item>
              <item>
                <linkId value="order.notificationContactDocumentResponse.practitioner.email"/>
                <text value="E-Mail"/>
                <type value="string"/>
              </item>
            </item>
          </item>
          <item>
            <linkId value="order.priority"/>
            <text value="Auftragspriorität"/>
            <type value="choice"/>
            <answerOption>
              <valueCoding>
                <system value="http://hl7.org/fhir/request-priority"/>
                <code value="routine"/>
                <display value="Routine"/>
              </valueCoding>
              <initialSelected value="true"/>
            </answerOption>
            <answerOption>
              <valueCoding>
                <system value="http://hl7.org/fhir/request-priority"/>
                <code value="urgent"/>
                <display value="Urgent"/>
              </valueCoding>
            </answerOption>
            <answerOption>
              <valueCoding>
                <system value="http://hl7.org/fhir/request-priority"/>
                <code value="asap"/>
                <display value="ASAP"/>
              </valueCoding>
            </answerOption>
            <answerOption>
              <valueCoding>
                <system value="http://hl7.org/fhir/request-priority"/>
                <code value="stat"/>
                <display value="STAT"/>
              </valueCoding>
            </answerOption>
          </item>
        </item>
        <item>
          <linkId value="receiver"/>
          <text value="Empfänger"/>
          <type value="group"/>
          <item>
            <linkId value="receiver.practitioner"/>
            <text value="Empfangende Person"/>
            <type value="group"/>
            <item>
              <linkId value="receiver.practitioner.title"/>
              <text value="Titel"/>
              <type value="string"/>
            </item>
            <item>
              <linkId value="receiver.practitioner.familyName"/>
              <text value="Name"/>
              <type value="string"/>
            </item>
            <item>
              <linkId value="receiver.practitioner.givenName"/>
              <text value="Vorname"/>
              <type value="string"/>
            </item>
            <item>
              <linkId value="receiver.practitioner.gln"/>
              <text value="GLN"/>
              <type value="string"/>
            </item>
            <item>
              <linkId value="receiver.practitioner.zsr"/>
              <text value="ZSR"/>
              <type value="string"/>
            </item>
            <item>
              <linkId value="receiver.practitioner.phone"/>
              <text value="Telefon"/>
              <type value="string"/>
            </item>
            <item>
              <linkId value="receiver.practitioner.email"/>
              <text value="E-Mail"/>
              <type value="string"/>
            </item>
          </item>
          <item>
            <linkId value="receiver.organization"/>
            <text value="Empfangende Organisation"/>
            <type value="group"/>
            <item>
              <linkId value="receiver.organization.name"/>
              <text value="Name der Organisation"/>
              <type value="string"/>
            </item>
            <item>
              <linkId value="receciver.organization.gln"/>
              <definition value="GLNIdentifier"/>
              <text value="GLN"/>
              <type value="string"/>
            </item>
            <item>
              <linkId value="receiver.organization.streetAddressLine"/>
              <text value="Strasse, Hausnummer, Postfach etc."/>
              <type value="string"/>
              <repeats value="true"/>
            </item>
            <item>
              <linkId value="receiver.organization.postalCode"/>
              <text value="PLZ"/>
              <type value="string"/>
            </item>
            <item>
              <linkId value="receiver.organization.city"/>
              <text value="Ort"/>
              <type value="string"/>
            </item>
            <item>
              <linkId value="receiver.organization.country"/>
              <text value="Land"/>
              <type value="string"/>
            </item>
          </item>
        </item>
        <item>
          <linkId value="patient"/>
          <text value="Patient"/>
          <type value="group"/>
          <required value="true"/>
          <item>
            <linkId value="patient.familyName"/>
            <text value="Name"/>
            <type value="string"/>
          </item>
          <item>
            <linkId value="patient.maidenName"/>
            <text value="Ledigname"/>
            <type value="string"/>
          </item>
          <item>
            <linkId value="patient.givenName"/>
            <text value="Vorname"/>
            <type value="string"/>
          </item>
          <item>
            <linkId value="patient.localPid"/>
            <text value="Lokale Patienten-ID"/>
            <type value="string"/>
          </item>
          <item>
            <linkId value="patient.birthDate"/>
            <text value="Geburtsdatum"/>
            <type value="date"/>
          </item>
          <item>
            <linkId value="patient.gender"/>
            <text value="Geschlecht"/>
            <type value="choice"/>
            <answerOption>
              <valueCoding>
                <system value="http://hl7.org/fhir/administrative-gender"/>
                <code value="male"/>
                <display value="Male"/>
              </valueCoding>
              <initialSelected value="true"/>
            </answerOption>
            <answerOption>
              <valueCoding>
                <system value="http://hl7.org/fhir/administrative-gender"/>
                <code value="female"/>
                <display value="Female"/>
              </valueCoding>
            </answerOption>
            <answerOption>
              <valueCoding>
                <system value="http://hl7.org/fhir/administrative-gender"/>
                <code value="other"/>
                <display value="Other"/>
              </valueCoding>
            </answerOption>
          </item>
          <item>
            <linkId value="patient.maritalStatus"/>
            <definition value="http://fhir.ch/ig/ch-core/StructureDefinition/ch-core-patient#Patient.maritalStatus"/>
            <text value="Zivilstand"/>
            <type value="choice"/>
            <answerOption>
              <valueCoding>
                <system value="http://fhir.ch/ig/ch-core/CodeSystem/ech-11-maritalstatus"/>
                <code value="1"/>
                <display value="ledig"/>
              </valueCoding>
            </answerOption>
            <answerOption>
              <valueCoding>
                <system value="http://fhir.ch/ig/ch-core/CodeSystem/ech-11-maritalstatus"/>
                <code value="2"/>
                <display value="verheiratet"/>
              </valueCoding>
            </answerOption>
            <answerOption>
              <valueCoding>
                <system value="http://fhir.ch/ig/ch-core/CodeSystem/ech-11-maritalstatus"/>
                <code value="3"/>
                <display value="verwitwet"/>
              </valueCoding>
            </answerOption>
            <answerOption>
              <valueCoding>
                <system value="http://fhir.ch/ig/ch-core/CodeSystem/ech-11-maritalstatus"/>
                <code value="4"/>
                <display value="geschieden"/>
              </valueCoding>
            </answerOption>
            <answerOption>
              <valueCoding>
                <system value="http://fhir.ch/ig/ch-core/CodeSystem/ech-11-maritalstatus"/>
                <code value="5"/>
                <display value="unverheiratet"/>
              </valueCoding>
            </answerOption>
            <answerOption>
              <valueCoding>
                <system value="http://fhir.ch/ig/ch-core/CodeSystem/ech-11-maritalstatus"/>
                <code value="6"/>
                <display value="in eingetragener Partnerschaft"/>
              </valueCoding>
            </answerOption>
            <answerOption>
              <valueCoding>
                <system value="http://fhir.ch/ig/ch-core/CodeSystem/ech-11-maritalstatus"/>
                <code value="7"/>
                <display value="aufgelöste Partnerschaft"/>
              </valueCoding>
            </answerOption>
            <answerOption>
              <valueCoding>
                <system value="http://fhir.ch/ig/ch-core/CodeSystem/ech-11-maritalstatus"/>
                <code value="9"/>
                <display value="unbekannt"/>
              </valueCoding>
            </answerOption>
          </item>
          <item>
            <linkId value="patient.phone"/>
            <text value="Telefon"/>
            <type value="string"/>
          </item>
          <item>
            <linkId value="patient.email"/>
            <text value="E-Mail"/>
            <type value="string"/>
          </item>
          <item>
            <linkId value="patient.streetAddressLine"/>
            <text value="Strasse, Hausnummer, Postfach etc."/>
            <type value="string"/>
            <repeats value="true"/>
          </item>
          <item>
            <linkId value="patient.postalCode"/>
            <text value="PLZ"/>
            <type value="string"/>
          </item>
          <item>
            <linkId value="patient.city"/>
            <text value="Ort"/>
            <type value="string"/>
          </item>
          <item>
            <linkId value="patient.country"/>
            <text value="Land"/>
            <type value="string"/>
          </item>
          <item>
            <linkId value="patient.contactperson"/>
            <definition value="http://fhir.ch/ig/ch-core/StructureDefinition/ch-core-patient#Patient.contact"/>
            <text value="Kontaktperson"/>
            <type value="group"/>
            <item>
              <linkId value="patient.contactperson.relationship"/>
              <definition value="http://fhir.ch/ig/ch-core/StructureDefinition/ch-core-patient#Patient.contact.relationship.text"/>
              <text value="Beziehung"/>
              <type value="string"/>
            </item>
            <item>
              <linkId value="patient.contactperson.familyName"/>
              <definition value="http://fhir.ch/ig/ch-core/StructureDefinition/ch-core-patient#Patient.contact.name.family"/>
              <text value="Name"/>
              <type value="string"/>
            </item>
            <item>
              <linkId value="patient.contactperson.givenName"/>
              <definition value="http://fhir.ch/ig/ch-core/StructureDefinition/ch-core-patient#Patient.contact.name.given"/>
              <text value="Vorname"/>
              <type value="string"/>
            </item>
            <item>
              <linkId value="patient.contactperson.phone"/>
              <definition value="http://fhir.ch/ig/ch-core/StructureDefinition/ch-core-patient#Patient.contact.telecom.value"/>
              <text value="Telefon"/>
              <type value="string"/>
              <repeats value="true"/>
            </item>
            <item>
              <linkId value="patient.contactperson.email"/>
              <definition value="http://fhir.ch/ig/ch-core/StructureDefinition/ch-core-patient#Patient.contact.telecom.value"/>
              <text value="E-Mail"/>
              <type value="string"/>
            </item>
          </item>
        </item>
        <item>
          <linkId value="sender"/>
          <text value="Absender"/>
          <type value="group"/>
          <required value="true"/>
          <item>
            <linkId value="sender.author"/>
            <text value="Verantwortlicher"/>
            <type value="group"/>
            <required value="true"/>
            <item>
              <linkId value="sender.author.practitioner"/>
              <text value="Verantwortliche Person"/>
              <type value="group"/>
              <item>
                <linkId value="sender.author.practitioner.title"/>
                <text value="Titel"/>
                <type value="string"/>
              </item>
              <item>
                <linkId value="sender.author.practitioner.familyName"/>
                <text value="Name"/>
                <type value="string"/>
              </item>
              <item>
                <linkId value="sender.author.practitioner.givenName"/>
                <text value="Vorname"/>
                <type value="string"/>
              </item>
              <item>
                <linkId value="sender.author.practitioner.gln"/>
                <text value="GLN"/>
                <type value="string"/>
              </item>
              <item>
                <linkId value="sender.author.practitioner.zsr"/>
                <text value="ZSR"/>
                <type value="string"/>
              </item>
              <item>
                <linkId value="sender.author.practitioner.phone"/>
                <text value="Telefon"/>
                <type value="string"/>
              </item>
              <item>
                <linkId value="sender.author.practitioner.email"/>
                <text value="E-Mail"/>
                <type value="string"/>
              </item>
            </item>
            <item>
              <linkId value="sender.author.organization"/>
              <text value="Verantwortliche Organisation"/>
              <type value="group"/>
              <item>
                <linkId value="sender.author.organization.name"/>
                <text value="Name der Organisation"/>
                <type value="string"/>
              </item>
              <item>
                <linkId value="sender.author.organization.streetAddressLine"/>
                <text value="Strasse, Hausnummer, Postfach etc."/>
                <type value="string"/>
                <repeats value="true"/>
              </item>
              <item>
                <linkId value="sender.author.organization.postalCode"/>
                <text value="PLZ"/>
                <type value="string"/>
              </item>
              <item>
                <linkId value="sender.author.organization.city"/>
                <text value="Ort"/>
                <type value="string"/>
              </item>
              <item>
                <linkId value="sender.author.organization.country"/>
                <text value="Land"/>
                <type value="string"/>
              </item>
            </item>
          </item>
          <item>
            <linkId value="sender.dataenterer"/>
            <text value="Erfasser"/>
            <type value="group"/>
            <item>
              <linkId value="sender.dataenterer.practitioner"/>
              <text value="Erfassende Person"/>
              <type value="group"/>
              <item>
                <linkId value="sender.dataenterer.practitioner.familyName"/>
                <text value="Name"/>
                <type value="string"/>
              </item>
              <item>
                <linkId value="sender.dataenterer.practitioner.givenName"/>
                <text value="Vorname"/>
                <type value="string"/>
              </item>
              <item>
                <linkId value="sender.dataenterer.practitioner.phone"/>
                <text value="Telefon"/>
                <type value="string"/>
              </item>
              <item>
                <linkId value="sender.dataenterer.practitioner.email"/>
                <text value="E-Mail"/>
                <type value="string"/>
              </item>
            </item>
          </item>
        </item>
        <item>
          <linkId value="receiverCopies"/>
          <text value="Kopieempfänger"/>
          <type value="group"/>
          <item>
            <linkId value="receiverCopy"/>
            <definition value="http://fhir.ch/ig/ch-core/StructureDefinition/ch-core-practitionerrole#PractitionerRole"/>
            <text value="Kopieempfangende Organisation oder Person"/>
            <type value="group"/>
            <repeats value="true"/>
            <item>
              <linkId value="receiverCopy.organization.name"/>
              <definition value="http://fhir.ch/ig/ch-core/StructureDefinition/ch-core-practitionerrole#PractitionerRole.practitioner"/>
              <text value="Name der Organisation"/>
              <type value="string"/>
              <item>
                <linkId value="receiverCopy.practitionerRole.practitioner.title"/>
                <definition value="http://fhir.ch/ig/ch-core/StructureDefinition/ch-core-humanname#HumanName.prefix"/>
                <text value="Titel"/>
                <type value="string"/>
              </item>
              <item>
                <linkId value="receiverCopy.practitionerRole.practitioner.familyName"/>
                <definition value="http://fhir.ch/ig/ch-core/StructureDefinition/ch-core-humanname#HumanName.family"/>
                <text value="Name"/>
                <type value="string"/>
              </item>
              <item>
                <linkId value="receiverCopy.practitionerRole.practitioner.givenName"/>
                <definition value="http://fhir.ch/ig/ch-core/StructureDefinition/ch-core-humanname#HumanName.given"/>
                <text value="Vorname"/>
                <type value="string"/>
              </item>
              <item>
                <linkId value="receiverCopy.practitionerRole.practitioner.phone"/>
                <definition value="http://hl7.org/fhir/StructureDefinition/ContactPoint#ContactPoint.value"/>
                <text value="Telefon"/>
                <type value="string"/>
              </item>
              <item>
                <linkId value="receiverCopy.practitionerRole.practitioner.email"/>
                <definition value="http://hl7.org/fhir/StructureDefinition/ContactPoint#ContactPoint.value"/>
                <text value="E-Mail"/>
                <type value="string"/>
              </item>
            </item>
            <item>
              <linkId value="receiverCopy.title"/>
              <definition value="http://fhir.ch/ig/ch-core/StructureDefinition/ch-core-practitionerrole#PractitionerRole.organization"/>
              <text value="Titel"/>
              <type value="string"/>
              <item>
                <linkId value="receiverCopy.practitionerRole.organization.name"/>
                <definition value="http://fhir.ch/ig/ch-core/StructureDefinition/ch-core-organization#Organization.name"/>
                <text value="Name der Organisation"/>
                <type value="string"/>
              </item>
              <item>
                <linkId value="receiverCopy.practitionerRole.organization.streetAddressLine"/>
                <definition value="http://fhir.ch/ig/ch-core/StructureDefinition/ch-core-address#Address.line"/>
                <text value="Strasse, Hausnummer, Postfach etc."/>
                <type value="string"/>
                <repeats value="true"/>
              </item>
              <item>
                <linkId value="receiverCopy.practitionerRole.organization.postalCode"/>
                <definition value="http://fhir.ch/ig/ch-core/StructureDefinition/ch-core-address#Address.postalCode"/>
                <text value="PLZ"/>
                <type value="string"/>
              </item>
              <item>
                <linkId value="receiverCopy.practitionerRole.organization.city"/>
                <definition value="http://fhir.ch/ig/ch-core/StructureDefinition/ch-core-address#Address.city"/>
                <text value="Ort"/>
                <type value="string"/>
              </item>
              <item>
                <linkId value="receiverCopy.practitionerRole.organization.country"/>
                <definition value="http://fhir.ch/ig/ch-core/StructureDefinition/ch-core-address#Address.country"/>
                <text value="Land"/>
                <type value="string"/>
              </item>
            </item>
            <item>
              <linkId value="receiverCopy.familyName"/>
              <text value="Name"/>
              <type value="string"/>
            </item>
            <item>
              <linkId value="receiverCopy.givenName"/>
              <text value="Vorname"/>
              <type value="string"/>
            </item>
            <item>
              <linkId value="receiverCopy.phone"/>
              <text value="Telefon"/>
              <type value="string"/>
            </item>
            <item>
              <linkId value="receiverCopy.email"/>
              <text value="E-Mail"/>
              <type value="string"/>
            </item>
            <item>
              <linkId value="receiverCopy.streetAddressLine"/>
              <text value="Strasse, Hausnummer, Postfach etc."/>
              <type value="string"/>
              <repeats value="true"/>
            </item>
            <item>
              <linkId value="receiverCopy.postalCode"/>
              <text value="PLZ"/>
              <type value="string"/>
            </item>
            <item>
              <linkId value="receiverCopy.city"/>
              <text value="Ort"/>
              <type value="string"/>
            </item>
            <item>
              <linkId value="receiverCopy.country"/>
              <text value="Land"/>
              <type value="string"/>
            </item>
          </item>
          <item>
            <linkId value="receiverCopy.patient"/>
            <definition value="http://fhir.ch/ig/ch-core/StructureDefinition/ch-core-patient#Patient"/>
            <text value="Patient selbst"/>
            <type value="boolean"/>
          </item>
          <item>
            <linkId value="receiverCopy.relatedPerson"/>
            <definition value="http://hl7.org/fhir/StructureDefinition/RelatedPerson#RelatedPerson"/>
            <text value="Andere Person"/>
            <type value="group"/>
            <repeats value="true"/>
            <item>
              <linkId value="receiverCopy.relatedPerson.familyName"/>
              <definition value="http://hl7.org/fhir/StructureDefinition/RelatedPerson#RelatedPerson.name.family"/>
              <text value="Name"/>
              <type value="string"/>
            </item>
            <item>
              <linkId value="receiverCopy.relatedPerson.givenName"/>
              <definition value="http://hl7.org/fhir/StructureDefinition/RelatedPerson#RelatedPerson.name.given"/>
              <text value="Vorame"/>
              <type value="string"/>
            </item>
            <item>
              <linkId value="receiverCopy.relatedPerson.phone"/>
              <definition value="http://hl7.org/fhir/StructureDefinition/RelatedPerson#RelatedPerson.telecom.value"/>
              <text value="Telefon"/>
              <type value="string"/>
              <repeats value="true"/>
            </item>
            <item>
              <linkId value="receiverCopy.relatedPerson.email"/>
              <definition value="http://hl7.org/fhir/StructureDefinition/RelatedPerson#RelatedPerson.telecom.value"/>
              <text value="E-Mail"/>
              <type value="string"/>
            </item>
            <item>
              <linkId value="receiverCopy.relatedPerson.streetAddressLine"/>
              <definition value="http://hl7.org/fhir/StructureDefinition/RelatedPerson#RelatedPerson.address.line"/>
              <text value="Strasse, Hausnummer, Postfach etc."/>
              <type value="string"/>
              <repeats value="true"/>
            </item>
            <item>
              <linkId value="receiverCopy.relatedPerson.postalCode"/>
              <definition value="http://hl7.org/fhir/StructureDefinition/RelatedPerson#RelatedPerson.address.postalCode"/>
              <text value="PLZ"/>
              <type value="string"/>
            </item>
            <item>
              <linkId value="receiverCopy.relatedPerson.city"/>
              <definition value="http://hl7.org/fhir/StructureDefinition/RelatedPerson#RelatedPerson.address.city"/>
              <text value="Ort"/>
              <type value="string"/>
            </item>
            <item>
              <linkId value="receiverCopy.relatedPerson.country"/>
              <definition value="http://hl7.org/fhir/StructureDefinition/RelatedPerson#RelatedPerson.address.country"/>
              <text value="Land"/>
              <type value="string"/>
            </item>
          </item>
        </item>
        <item>
          <linkId value="consent"/>
          <definition value="http://fhir.ch/ig/ch-lab-order/StructureDefinition/ch-lab-order-servicerequest#ServiceRequest.supportingInfo"/>
          <text value="Einverständniserklärung"/>
          <type value="group"/>
          <item>
            <linkId value="consent.treatment"/>
            <text value="Einverständnis des Patienten zur Behandlung"/>
            <type value="string"/>
          </item>
          <item>
            <linkId value="consent.patientPrivacy"/>
            <text value="Einverständnis des Patienten zum Datenschutz"/>
            <type value="string"/>
          </item>
          <item>
            <linkId value="consent.research"/>
            <text value="Einverständnis des Patienten zur Forschung"/>
            <type value="string"/>
          </item>
          <item>
            <linkId value="consent.advancedCareDirective"/>
            <text value="Patientenverfügung"/>
            <type value="string"/>
          </item>
        </item>
        <item>
          <linkId value="coverage"/>
          <definition value="http://fhir.ch/ig/ch-lab-order/StructureDefinition/ch-lab-order-servicerequest#ServiceRequest.insurance"/>
          <text value="Kostenträger"/>
          <type value="group"/>
          <item>
            <linkId value="coverage.uvg"/>
            <text value="Unfallversicherung (nach UVG)"/>
            <type value="string"/>
          </item>
          <item>
            <linkId value="coverage.kvg"/>
            <text value="Grundversicherung (nach KVG)"/>
            <type value="string"/>
          </item>
          <item>
            <linkId value="coverage.vvg"/>
            <text value="Zusatzversicherung (nach VVG)"/>
            <type value="string"/>
          </item>
          <item>
            <linkId value="coverage.vvgOther"/>
            <text value="Andere (nach VVG)"/>
            <type value="string"/>
          </item>
        </item>
        <item>
          <linkId value="previousResult"/>
          <definition value="http://fhir.ch/ig/ch-lab-order/StructureDefinition/ch-lab-order-servicerequest#ServiceRequest.supportingInfo"/>
          <text value="Vorheriges Untersuchungsresultat"/>
          <type value="group"/>
          <item>
            <linkId value="previousResult.result"/>
            <text value="Untersuchungsresultat"/>
            <type value="string"/>
            <repeats value="true"/>
          </item>
        </item>
        <item>
          <linkId value="casestudy"/>
          <text value="Case Studies"/>
          <type value="group"/>
          <item>
            <linkId value="1-tvt"/>
            <text value="Tiefe Venenthrombose Questionnaire"/>
            <type value="boolean"/>
            <item>
              <linkId value="1-tvt.labServices"/>
              <text value="Case Study tiefe Venenthrombose"/>
              <type value="group"/>
              <enableWhen>
                <question value="1-tvt"/>
                <operator value="="/>
                <answerBoolean value="true"/>
              </enableWhen>
              <item>
                <linkId value="hematology-1"/>
                <text value="Hematology"/>
                <type value="group"/>
                <item>
                  <linkId value="hemato-subset"/>
                  <text value="Hämatologie Subset"/>
                  <type value="choice"/>
                  <repeats value="true"/>
                  <answerOption>
                    <valueCoding>
                      <system value="http://loinc.org"/>
                      <code value="24360-0"/>
                      <display value="Hemoglobin and Hematocrit panel - Blood"/>
                    </valueCoding>
                  </answerOption>
                  <answerOption>
                    <valueCoding>
                      <system value="http://loinc.org"/>
                      <code value="43113-0"/>
                      <display value="Hemoglobin electrophoresis panel in Blood"/>
                    </valueCoding>
                  </answerOption>
                  <answerOption>
                    <valueCoding>
                      <system value="http://loinc.org"/>
                      <code value="57021-8"/>
                      <display value="CBC W Auto Differential panel - Blood"/>
                    </valueCoding>
                  </answerOption>
                  <answerOption>
                    <valueCoding>
                      <system value="http://loinc.org"/>
                      <code value="58410-2"/>
                      <display value="CBC panel - Blood by Automated count"/>
                    </valueCoding>
                  </answerOption>
                  <answerOption>
                    <valueCoding>
                      <system value="http://loinc.org"/>
                      <code value="57021-8"/>
                      <display value="CBC W Auto Differential panel - Blood"/>
                    </valueCoding>
                  </answerOption>
                </item>
              </item>
              <item>
                <linkId value="coagulation"/>
                <text value="Coagulation"/>
                <type value="group"/>
                <item>
                  <linkId value="d-dimer"/>
                  <text value="D-Dimer"/>
                  <type value="choice"/>
                  <repeats value="true"/>
                  <answerOption>
                    <valueCoding>
                      <system value="http://loinc.org"/>
                      <code value="55398-2"/>
                      <display value="Short Fibrin D-dimer FEU and DDU panel - Platelet poor plasma"/>
                    </valueCoding>
                  </answerOption>
                </item>
              </item>
              <item>
                <linkId value="clinical-chemistry-1"/>
                <text value="Clinical Chemistry"/>
                <type value="group"/>
                <item>
                  <linkId value="crp-1"/>
                  <text value="CRP"/>
                  <type value="choice"/>
                  <repeats value="true"/>
                  <answerOption>
                    <valueCoding>
                      <system value="http://loinc.org"/>
                      <code value="1988-5"/>
                      <display value="C reactive protein [Mass/Volume] in Serum or Plasma"/>
                    </valueCoding>
                    <initialSelected value="true"/>
                  </answerOption>
                  <answerOption>
                    <valueCoding>
                      <system value="http://loinc.org"/>
                      <code value="76485-2"/>
                      <display value="C reactive protein [Moles/volume] in Serum or Plasma"/>
                    </valueCoding>
                  </answerOption>
                  <answerOption>
                    <valueCoding>
                      <system value="http://loinc.org"/>
                      <code value="30522-7"/>
                      <display value="C reactive protein [Mass/volume] in Serum or Plasma by High sensitivity method"/>
                    </valueCoding>
                  </answerOption>
                  <answerOption>
                    <valueCoding>
                      <system value="http://loinc.org"/>
                      <code value="76486-0"/>
                      <display value="C reactive protein [Moles/volume] in Serum or Plasma by High sensitivity method"/>
                    </valueCoding>
                  </answerOption>
                </item>
              </item>
            </item>
          </item>
          <item>
            <linkId value="2-pertussis"/>
            <text value="Abklärung Husten Questionnaire"/>
            <type value="boolean"/>
            <item>
              <linkId value="2-pertussis.labServices"/>
              <text value="Case Study Husten"/>
              <type value="group"/>
              <enableWhen>
                <question value="2-pertussis"/>
                <operator value="="/>
                <answerBoolean value="true"/>
              </enableWhen>
              <item>
                <linkId value="microbiology-2"/>
                <text value="Mikrobiologie"/>
                <type value="group"/>
                <item>
                  <linkId value="per"/>
                  <text value="Pertussis and Parapertussis DNA"/>
                  <type value="choice"/>
                  <repeats value="true"/>
                  <answerOption>
                    <valueCoding>
                      <system value="http://loinc.org"/>
                      <code value="90441-7"/>
                      <display value="B pert+parapert DNA Pnl Nph"/>
                    </valueCoding>
                  </answerOption>
                </item>
              </item>
              <item>
                <linkId value="hematology-2"/>
                <text value="Hämatologie"/>
                <type value="group"/>
                <item>
                  <linkId value="Blood-diff"/>
                  <text value="Manual Differential panel - Blood"/>
                  <type value="choice"/>
                  <repeats value="true"/>
                  <answerOption>
                    <valueCoding>
                      <system value="http://loinc.org"/>
                      <code value="24318-8"/>
                      <display value="Manual diff Bld"/>
                    </valueCoding>
                  </answerOption>
                </item>
              </item>
              <item>
                <linkId value="clinical-chemistry-2"/>
                <text value="Klinische Chemie"/>
                <type value="group"/>
                <item>
                  <linkId value="crp-2"/>
                  <text value="C-reactive Protein"/>
                  <type value="choice"/>
                  <repeats value="true"/>
                  <answerOption>
                    <valueCoding>
                      <system value="http://loinc.org"/>
                      <code value="1988-5"/>
                      <display value="C reactive protein [Mass/volume] in Serum or Plasma"/>
                    </valueCoding>
                  </answerOption>
                </item>
              </item>
            </item>
          </item>
          <item>
            <linkId value="3-gyn"/>
            <text value="Gynäkologische Vorsorge Questionnaire"/>
            <type value="boolean"/>
            <item>
              <linkId value="3-gyn.labServices"/>
              <text value="Case Study Gynäkologische Vorsorge"/>
              <type value="group"/>
              <enableWhen>
                <question value="3-gyn"/>
                <operator value="="/>
                <answerBoolean value="true"/>
              </enableWhen>
              <item>
                <linkId value="cytology"/>
                <text value="Cytology and Microbiology"/>
                <type value="group"/>
                <item>
                  <linkId value="cervicalSmear"/>
                  <text value="Cervical Smear"/>
                  <type value="choice"/>
                  <repeats value="true"/>
                  <answerOption>
                    <valueCoding>
                      <system value="http://loinc.org"/>
                      <code value="86662-4"/>
                      <display value="Pap smear tests - FPAR 2.0 set"/>
                    </valueCoding>
                  </answerOption>
                  <answerOption>
                    <valueCoding>
                      <system value="http://loinc.org"/>
                      <code value="14503-7"/>
                      <display value="Human papilloma virus 16+18 Ag [Presence] in Cervix"/>
                    </valueCoding>
                  </answerOption>
                </item>
              </item>
              <item>
                <linkId value="urin"/>
                <text value="Urin"/>
                <type value="group"/>
                <item>
                  <linkId value="combur9"/>
                  <text value="Combur-9"/>
                  <type value="choice"/>
                  <repeats value="true"/>
                  <answerOption>
                    <valueCoding>
                      <system value="http://loinc.org"/>
                      <code value="50556-0"/>
                      <display value="Urinalysis dipstick panel - Urine by Automated test strip"/>
                    </valueCoding>
                  </answerOption>
                </item>
              </item>
              <item>
                <linkId value="obstetricalPanels"/>
                <text value="Schwangerschaftsvorsorge"/>
                <type value="group"/>
                <item>
                  <linkId value="obstetric"/>
                  <text value="Obstetric 1996 panel – Serum and Blood"/>
                  <type value="choice"/>
                  <repeats value="true"/>
                  <answerOption>
                    <valueCoding>
                      <system value="http://loinc.org"/>
                      <code value="24364-2"/>
                      <display value="Obstetric 1996 Pnl Ser+Bld"/>
                    </valueCoding>
                  </answerOption>
                </item>
              </item>
            </item>
          </item>
          <item>
            <linkId value="4-sepis"/>
            <text value="Abklärung Sepsis Questionnaire"/>
            <type value="boolean"/>
            <item>
              <linkId value="4-sepis.labServices"/>
              <text value="Case Study Sepis"/>
              <type value="group"/>
              <enableWhen>
                <question value="4-sepis"/>
                <operator value="="/>
                <answerBoolean value="true"/>
              </enableWhen>
              <item>
                <linkId value="hematology-4"/>
                <text value="Hematology"/>
                <type value="group"/>
                <item>
                  <linkId value="lab-4"/>
                  <text value="Laborwerte"/>
                  <type value="choice"/>
                  <repeats value="true"/>
                  <answerOption>
                    <valueCoding>
                      <system value="http://loinc.org"/>
                      <code value="24360-0"/>
                      <display value="Hemoglobin and Hematocrit panel - Blood"/>
                    </valueCoding>
                  </answerOption>
                  <answerOption>
                    <valueCoding>
                      <system value="http://loinc.org"/>
                      <code value="43113-0"/>
                      <display value="Hemoglobin electrophoresis panel in Blood"/>
                    </valueCoding>
                  </answerOption>
                  <answerOption>
                    <valueCoding>
                      <system value="http://loinc.org"/>
                      <code value="57021-8"/>
                      <display value="CBC W Auto Differential panel - Blood"/>
                    </valueCoding>
                  </answerOption>
                  <answerOption>
                    <valueCoding>
                      <system value="http://loinc.org"/>
                      <code value="58410-2"/>
                      <display value="CBC panel - Blood by Automated count"/>
                    </valueCoding>
                  </answerOption>
                  <answerOption>
                    <valueCoding>
                      <system value="http://loinc.org"/>
                      <code value="57021-8"/>
                      <display value="CBC W Auto Differential panel - Blood"/>
                    </valueCoding>
                  </answerOption>
                </item>
              </item>
              <item>
                <linkId value="microbiology-4"/>
                <text value="Mikrobiologie"/>
                <type value="group"/>
                <item>
                  <linkId value="culture"/>
                  <text value="Blood by Culture"/>
                  <type value="choice"/>
                  <repeats value="true"/>
                  <answerOption>
                    <valueCoding>
                      <system value="http://loinc.org"/>
                      <code value="90423-5"/>
                      <display value="Microorganism preliminary growth detection panel - Blood by Culture"/>
                    </valueCoding>
                  </answerOption>
                </item>
                <item>
                  <linkId value="id-susc"/>
                  <text value="Bacterial Identification and Susceptibility"/>
                  <type value="choice"/>
                  <repeats value="true"/>
                  <answerOption>
                    <valueCoding>
                      <system value="http://loinc.org"/>
                      <code value="85421-6"/>
                      <display value="Bacterial identification and susceptibility panel - Isolate"/>
                    </valueCoding>
                  </answerOption>
                </item>
              </item>
              <item>
                <linkId value="clinical-chemistry-4"/>
                <text value="Klinische Chemie"/>
                <type value="group"/>
                <item>
                  <linkId value="crp-4"/>
                  <text value="CRP"/>
                  <type value="choice"/>
                  <repeats value="true"/>
                  <answerOption>
                    <valueCoding>
                      <system value="http://loinc.org"/>
                      <code value="1988-5"/>
                      <display value="C reactive protein [Mass/Volume] in Serum or Plasma"/>
                    </valueCoding>
                    <initialSelected value="true"/>
                  </answerOption>
                  <answerOption>
                    <valueCoding>
                      <system value="http://loinc.org"/>
                      <code value="76485-2"/>
                      <display value="C reactive protein [Moles/volume] in Serum or Plasma"/>
                    </valueCoding>
                  </answerOption>
                  <answerOption>
                    <valueCoding>
                      <system value="http://loinc.org"/>
                      <code value="30522-7"/>
                      <display value="C reactive protein [Mass/volume] in Serum or Plasma by High sensitivity method"/>
                    </valueCoding>
                  </answerOption>
                  <answerOption>
                    <valueCoding>
                      <system value="http://loinc.org"/>
                      <code value="76486-0"/>
                      <display value="C reactive protein [Moles/volume] in Serum or Plasma by High sensitivity method"/>
                    </valueCoding>
                  </answerOption>
                </item>
              </item>
            </item>
          </item>
          <item>
            <linkId value="5-biol-monit"/>
            <text value="Biologisches Monitoring Questionnaire"/>
            <type value="boolean"/>
            <item>
              <linkId value="5-biol-monit.labServices"/>
              <text value="Case Study biologisches Monitoring"/>
              <type value="group"/>
              <enableWhen>
                <question value="5-biol-monit"/>
                <operator value="="/>
                <answerBoolean value="true"/>
              </enableWhen>
              <item>
                <linkId value="hematology-5"/>
                <text value="Hematology"/>
                <type value="group"/>
                <item>
                  <linkId value="lab-5"/>
                  <text value="Laborwerte"/>
                  <type value="choice"/>
                  <repeats value="true"/>
                  <answerOption>
                    <valueCoding>
                      <system value="http://loinc.org"/>
                      <code value="24360-0"/>
                      <display value="Hemoglobin and Hematocrit panel - Blood"/>
                    </valueCoding>
                  </answerOption>
                  <answerOption>
                    <valueCoding>
                      <system value="http://loinc.org"/>
                      <code value="43113-0"/>
                      <display value="Hemoglobin electrophoresis panel in Blood"/>
                    </valueCoding>
                  </answerOption>
                  <answerOption>
                    <valueCoding>
                      <system value="http://loinc.org"/>
                      <code value="57021-8"/>
                      <display value="CBC W Auto Differential panel - Blood"/>
                    </valueCoding>
                  </answerOption>
                  <answerOption>
                    <valueCoding>
                      <system value="http://loinc.org"/>
                      <code value="58410-2"/>
                      <display value="CBC panel - Blood by Automated count"/>
                    </valueCoding>
                  </answerOption>
                  <answerOption>
                    <valueCoding>
                      <system value="http://loinc.org"/>
                      <code value="57021-8"/>
                      <display value="CBC W Auto Differential panel - Blood"/>
                    </valueCoding>
                  </answerOption>
                </item>
              </item>
              <item>
                <linkId value="toxicology"/>
                <text value="Toxicology"/>
                <type value="group"/>
                <item>
                  <linkId value="tox"/>
                  <text value="Toxic Content"/>
                  <type value="choice"/>
                  <repeats value="true"/>
                  <answerOption>
                    <valueCoding>
                      <system value="http://loinc.org"/>
                      <code value="29587-3"/>
                      <display value="Toxicology panel - Blood"/>
                    </valueCoding>
                  </answerOption>
                  <answerOption>
                    <valueCoding>
                      <system value="http://loinc.org"/>
                      <code value="54454-4"/>
                      <display value="Arsenic fractions panel - Urine"/>
                    </valueCoding>
                  </answerOption>
                  <answerOption>
                    <valueCoding>
                      <system value="http://loinc.org"/>
                      <code value="29589-9"/>
                      <display value="Heavy metals panel - Urine"/>
                    </valueCoding>
                  </answerOption>
                </item>
              </item>
            </item>
          </item>
          <item>
            <linkId value="6-histopath"/>
            <text value="Pathologische Untersuchung einer Gewebsprobe Questionnaire"/>
            <type value="boolean"/>
            <item>
              <linkId value="6-histopath.labServices"/>
              <text value="Case Study Pathologische Untersuchung einer Gewebsprobe"/>
              <type value="group"/>
              <enableWhen>
                <question value="6-histopath"/>
                <operator value="="/>
                <answerBoolean value="true"/>
              </enableWhen>
              <item>
                <linkId value="labSpecialties"/>
                <text value="Labor Sparten"/>
                <type value="group"/>
                <item>
                  <linkId value="labSpecialties.pathology"/>
                  <definition value="27898-6"/>
                  <text value="Pathology"/>
                  <type value="boolean"/>
                  <item>
                    <linkId value="labSpecialties.pathology.panels"/>
                    <text value="Pathology Panels"/>
                    <type value="group"/>
                    <enableWhen>
                      <question value="labSpecialties.pathology"/>
                      <operator value="="/>
                      <answerBoolean value="true"/>
                    </enableWhen>
                    <item>
                      <linkId value="labSpecialties.pathology.panels.Autopsy"/>
                      <definition value="18743-5"/>
                      <text value="Autopsy report"/>
                      <type value="boolean"/>
                    </item>
                    <item>
                      <linkId value="labSpecialties.pathology.panels.PathologyStudy"/>
                      <definition value="11526-1"/>
                      <text value="Pathology Study"/>
                      <type value="boolean"/>
                    </item>
                    <item>
                      <linkId value="labSpecialties.pathology.panels.SurgicalPathologyStudy"/>
                      <definition value="11529-5"/>
                      <text value="Surgical pathology study"/>
                      <type value="boolean"/>
                    </item>
                  </item>
                </item>
              </item>
            </item>
          </item>
        </item>
        <item>
          <linkId value="lab-compendiums"/>
          <text value="Labor Compendien"/>
          <type value="group"/>
          <item>
            <linkId value="lab-compendium.Gantenbein"/>
            <definition value="http://fhir.ch/ig/ch-lab-order/Composition/Gantenbein-Catalog-Header"/>
            <text value="Gantenbein Compendium"/>
            <type value="boolean"/>
            <item>
              <linkId value="lab-compendium.Gantenbein.labServices"/>
              <text value="Analysen Labor Gantenbein"/>
              <type value="group"/>
              <enableWhen>
                <question value="receiver.organization.name"/>
                <operator value="="/>
                <answerString value="Gantenbein"/>
              </enableWhen>
              <item>
                <linkId value="lab-compendium.Gantenbein.labServices.Potassium"/>
                <definition value="http://fhir.ch/ig/ch-lab-order/PlanDefinition/potassium-serum"/>
                <text value="Kalium"/>
                <type value="boolean"/>
                <item>
                  <linkId value="lab-compendium.Gantenbein.labServices.Potassium.specimenDefinition"/>
                  <text value="Analysen Labor Gantenbein Kalium"/>
                  <type value="group"/>
                  <enableWhen>
                    <question value="lab-compendium.Gantenbein.labServices.Potassium"/>
                    <operator value="="/>
                    <answerBoolean value="true"/>
                  </enableWhen>
                  <item>
                    <linkId value="lab-compendium.Gantenbein.Potassium.specimenDefinitions"/>
                    <text value="Set of possible Specimens in Lab Catalog Gantenbein"/>
                    <type value="choice"/>
                    <repeats value="false"/>
                    <answerOption>
                      <valueCoding>
                        <system value="http://snomed.info/sct"/>
                        <code value="122554006"/>
                        <display value="Capillary blood specimen (specimen)"/>
                      </valueCoding>
                    </answerOption>
                    <answerOption>
                      <valueCoding>
                        <system value="http://snomed.info/sct"/>
                        <code value="122555007"/>
                        <display value="Venous blood specimen (specimen)"/>
                      </valueCoding>
                    </answerOption>
                  </item>
                </item>
              </item>
              <item>
                <linkId value="lab-compendium.Gantenbein.labServices.Sodium"/>
                <definition value="http://fhir.ch/ig/ch-lab-order/PlanDefinition/sodium-serum"/>
                <code>
                  <system value="http://loinc.org"/>
                  <code value="2951-2"/>
                  <display value="Sodium [Moles/volume] in Serum or Plasma"/>
                </code>
                <text value="Natrium"/>
                <type value="boolean"/>
                <item>
                  <linkId value="lab-compendium.Gantenbein.labServices.Sodium.specimenDefinition"/>
                  <text value="Analysen Labor Gantenbein Natrium"/>
                  <type value="group"/>
                  <enableWhen>
                    <question value="lab-compendium.Gantenbein.labServices.Sodium"/>
                    <operator value="="/>
                    <answerBoolean value="true"/>
                  </enableWhen>
                  <item>
                    <linkId value="lab-compendium.Gantenbein.Sodium.specimenDefinitions"/>
                    <text value="Set of possible Specimens in Lab Catalog Gantenbein"/>
                    <type value="choice"/>
                    <repeats value="false"/>
                    <answerOption>
                      <valueCoding>
                        <system value="http://snomed.info/sct"/>
                        <code value="122554006"/>
                        <display value="Capillary blood specimen (specimen)"/>
                      </valueCoding>
                    </answerOption>
                    <answerOption>
                      <valueCoding>
                        <system value="http://snomed.info/sct"/>
                        <code value="122555007"/>
                        <display value="Venous blood specimen (specimen)"/>
                      </valueCoding>
                    </answerOption>
                  </item>
                </item>
              </item>
              <item>
                <linkId value="lab-compendium.Gantenbein.labServices.Chloride"/>
                <definition value="http://fhir.ch/ig/ch-lab-order/ActivityDefinition/procedure-chloride-serum"/>
                <code>
                  <system value="http://loinc.org"/>
                  <code value="2075-0"/>
                  <display value="Chloride [Moles/volume] in Serum or Plasma"/>
                </code>
                <text value="Chlorid"/>
                <type value="boolean"/>
                <item>
                  <linkId value="lab-compendium.Gantenbein.labServices.Chloride.specimenDefinition"/>
                  <text value="Analysen Labor Gantenbein Chloride"/>
                  <type value="group"/>
                  <enableWhen>
                    <question value="lab-compendium.Gantenbein.labServices.Chloride"/>
                    <operator value="="/>
                    <answerBoolean value="true"/>
                  </enableWhen>
                  <item>
                    <linkId value="lab-compendium.Gantenbein.Chloride.specimenDefinitions"/>
                    <text value="Set of possible Specimens in Lab Catalog Gantenbein"/>
                    <type value="choice"/>
                    <repeats value="false"/>
                    <answerOption>
                      <valueCoding>
                        <system value="http://snomed.info/sct"/>
                        <code value="122554006"/>
                        <display value="Capillary blood specimen (specimen)"/>
                      </valueCoding>
                    </answerOption>
                    <answerOption>
                      <valueCoding>
                        <system value="http://snomed.info/sct"/>
                        <code value="122555007"/>
                        <display value="Venous blood specimen (specimen)"/>
                      </valueCoding>
                    </answerOption>
                  </item>
                </item>
              </item>
              <item>
                <linkId value="lab-compendium.Gantenbein.labServices.Electrolyte"/>
                <definition value="http://fhir.ch/ig/ch-lab-order/ActivityDefinition/procedure-serum-electrolyte"/>
                <code>
                  <system value="http://loinc.org"/>
                  <code value="24326-1"/>
                  <display value="Electrolytes 1998 panel - Serum or Plasma"/>
                </code>
                <text value="Analysen Labor Gantenbein Elektrolyte"/>
                <type value="boolean"/>
                <item>
                  <linkId value="lab-compendium.Gantenbein.labServices.Electrolyte.ActivityDefintion"/>
                  <text value="Analysen Labor Gantenbein Elektrolyte"/>
                  <type value="group"/>
                  <enableWhen>
                    <question value="lab-compendium.Gantenbein.labServices.Electrolyte"/>
                    <operator value="="/>
                    <answerBoolean value="true"/>
                  </enableWhen>
                  <item>
                    <linkId value="lab-compendium.Gantenbein.Electrolytes"/>
                    <text value="Set of possible Specimens in Lab Catalog Gantenbein"/>
                    <type value="choice"/>
                    <repeats value="false"/>
                    <answerOption>
                      <valueCoding>
                        <system value="http://snomed.info/sct"/>
                        <code value="122554006"/>
                        <display value="Capillary blood specimen (specimen)"/>
                      </valueCoding>
                    </answerOption>
                    <answerOption>
                      <valueCoding>
                        <system value="http://snomed.info/sct"/>
                        <code value="122555007"/>
                        <display value="Venous blood specimen (specimen)"/>
                      </valueCoding>
                    </answerOption>
                  </item>
                </item>
              </item>
              <item>
                <linkId value="lab-compendium.Gantenbein.labServices.CreatinineClearance"/>
                <definition value="http://fhir.ch/ig/ch-lab-order/ActivityDefinition/procedure-urine24h-creatinine-clearance"/>
                <code>
                  <system value="http://loinc.org"/>
                  <code value="2164-2"/>
                  <display value="Creatinine renal clearance in 24 hour Urine and Serum or Plasma"/>
                </code>
                <text value="Analysen Labor Gantenbein Creatinine renal clearance (24H U+S/P) [Vol/Time]"/>
                <type value="boolean"/>
              </item>
              <item>
                <linkId value="lab-compendium.Gantenbein.labServices.CreatinineUrine24h"/>
                <definition value="http://fhir.ch/ig/ch-lab-order/ActivityDefinition/procedure-urine24h-creatinine"/>
                <code>
                  <system value="http://loinc.org"/>
                  <code value="25886-3"/>
                  <display value="Creatinine [Moles/volume] in 24 hour Urine"/>
                </code>
                <text value="Analysen Labor Gantenbein Creatinine on 24h urine"/>
                <type value="boolean"/>
                <item>
                  <linkId value="lab-compendium.Gantenbein.labServices.CreatinineSerum"/>
                  <definition value="http://fhir.ch/ig/ch-lab-order/ActivityDefinition/procedure-creatinine-serum"/>
                  <code>
                    <system value="http://loinc.org"/>
                    <code value="14682-9"/>
                    <display value="Creatinine [Moles/volume] in Serum or Plasma"/>
                  </code>
                  <text value="Analysen Labor Gantenbein Creatinine Serum"/>
                  <type value="boolean"/>
                  <item>
                    <linkId value="lab-compendium.Gantenbein.labServices.CreatinineSerum.specimenDefinition"/>
                    <text value="Analysen Labor Gantenbein CreatinineSerum"/>
                    <type value="group"/>
                    <enableWhen>
                      <question value="lab-compendium.Gantenbein.labServices.CreatinineSerum"/>
                      <operator value="="/>
                      <answerBoolean value="true"/>
                    </enableWhen>
                    <item>
                      <linkId value="lab-compendium.Gantenbein.CreatinineSerum.specimenDefinitions"/>
                      <text value="Set of possible Specimens in Lab Catalog Gantenbein"/>
                      <type value="choice"/>
                      <repeats value="false"/>
                      <answerOption>
                        <valueCoding>
                          <system value="http://snomed.info/sct"/>
                          <code value="122554006"/>
                          <display value="Capillary blood specimen (specimen)"/>
                        </valueCoding>
                      </answerOption>
                      <answerOption>
                        <valueCoding>
                          <system value="http://snomed.info/sct"/>
                          <code value="122555007"/>
                          <display value="Venous blood specimen (specimen)"/>
                        </valueCoding>
                      </answerOption>
                    </item>
                  </item>
                </item>
              </item>
              <item>
                <linkId value="lab-compendium.Gantenbein.labServices.Vitamin-D"/>
                <definition value="http://fhir.ch/ig/ch-lab-order/ActivityDefinition/procedure-vitamin-d-serum"/>
                <text value="Vitamin D"/>
                <type value="boolean"/>
                <item>
                  <linkId value="lab-compendium.Gantenbein.labServices.Vitamin-D.ActivityDefintion"/>
                  <text value="Analysen Labor Gantenbein Vitamin-D"/>
                  <type value="group"/>
                  <enableWhen>
                    <question value="lab-compendium.Gantenbein.labServices.Vitamin-D"/>
                    <operator value="="/>
                    <answerBoolean value="true"/>
                  </enableWhen>
                  <item>
                    <linkId value="lab-compendium.Gantenbein.NormalReasonsVitaminD"/>
                    <text value="Set of normal reasons to order value of Vitamin-D"/>
                    <type value="choice"/>
                    <repeats value="false"/>
                    <answerOption>
                      <valueCoding>
                        <system value="http://snomed.info/sct"/>
                        <code value="41345002"/>
                        <display value="Rickets (disorder)"/>
                      </valueCoding>
                    </answerOption>
                    <answerOption>
                      <valueCoding>
                        <system value="http://snomed.info/sct"/>
                        <code value="4598005"/>
                        <display value="Osteomalacia (disorder)"/>
                      </valueCoding>
                    </answerOption>
                    <answerOption>
                      <valueCoding>
                        <system value="http://snomed.info/sct"/>
                        <code value="737295003"/>
                        <display value="Transplanted kidney present (finding)"/>
                      </valueCoding>
                    </answerOption>
                    <answerOption>
                      <valueCoding>
                        <system value="http://snomed.info/sct"/>
                        <code value="707206008"/>
                        <display value="Assessment for bariatric surgery (procedure)"/>
                      </valueCoding>
                    </answerOption>
                    <answerOption>
                      <valueCoding>
                        <system value="http://snomed.info/sct"/>
                        <code value="443731004"/>
                        <display value="Assessment using Falls Risk Assessment Scale for the Elderly (procedure)"/>
                      </valueCoding>
                    </answerOption>
                    <answerOption>
                      <valueCoding>
                        <system value="http://snomed.info/sct"/>
                        <code value="66999008"/>
                        <display value="Hyperparathyroidism (disorder)"/>
                      </valueCoding>
                    </answerOption>
                  </item>
                  <item>
                    <linkId value="lab-compendium.Gantenbein.ClinicalFocusVitaminD"/>
                    <text value="Set of clinical focuses ordering Vitamin-D"/>
                    <type value="choice"/>
                    <repeats value="false"/>
                    <answerOption>
                      <valueCoding>
                        <system value="http://snomed.info/sct"/>
                        <code value="404684003"/>
                        <display value="Clinical finding (finding)"/>
                      </valueCoding>
                    </answerOption>
                    <answerOption>
                      <valueCoding>
                        <system value="http://snomed.info/sct"/>
                        <code value="272379006"/>
                        <display value="Event (event)"/>
                      </valueCoding>
                    </answerOption>
                    <answerOption>
                      <valueCoding>
                        <system value="http://snomed.info/sct"/>
                        <code value="413350009"/>
                        <display value="Finding with explicit context (situation)"/>
                      </valueCoding>
                    </answerOption>
                  </item>
                </item>
              </item>
            </item>
          </item>
          <item>
            <linkId value="lab-compendium.Pipette"/>
            <definition value="http://fhir.ch/ig/ch-lab-order/Composition/Pipette-Catalog-Header"/>
            <text value="Pipette Compendium"/>
            <type value="boolean"/>
            <item>
              <linkId value="lab-compendium.Pipette.Services"/>
              <text value="Lab Services"/>
              <type value="group"/>
              <enableWhen>
                <question value="receiver.organization.name"/>
                <operator value="="/>
                <answerString value="Pipette"/>
              </enableWhen>
              <item>
                <linkId value="cc.labServices"/>
                <text value="Clinical Chemistry Lab Services"/>
                <type value="group"/>
                <item>
                  <linkId value="cc-subset-pipette"/>
                  <text value="Clinical chemistry Subset"/>
                  <type value="choice"/>
                  <repeats value="true"/>
                  <answerOption>
                    <valueCoding>
                      <system value="http://loinc.org"/>
                      <code value="2823-3"/>
                      <display value="Potassium [Moles/volume] in Serum or Plasma"/>
                    </valueCoding>
                  </answerOption>
                  <answerOption>
                    <valueCoding>
                      <system value="http://loinc.org"/>
                      <code value="2947-0"/>
                      <display value="Sodium [Moles/volume] in Blood"/>
                    </valueCoding>
                  </answerOption>
                  <answerOption>
                    <valueCoding>
                      <system value="http://loinc.org"/>
                      <code value="2069-3"/>
                      <display value="Chloride [Moles/volume] in Blood"/>
                    </valueCoding>
                  </answerOption>
                  <answerOption>
                    <valueCoding>
                      <system value="http://loinc.org"/>
                      <code value="2160-0"/>
                      <display value="Creatinine [Mass/volume] in Serum or Plasma"/>
                    </valueCoding>
                  </answerOption>
                  <answerOption>
                    <valueCoding>
                      <system value="http://loinc.org"/>
                      <code value="14635-7"/>
                      <display value="25-hydroxyvitamin D3 [Moles/volume] in Serum or Plasma"/>
                    </valueCoding>
                  </answerOption>
                  <item>
                    <linkId value="choose-specimenDefinition"/>
                    <text value="Choose SpecimenDefinition"/>
                    <type value="group"/>
                    <enableWhen>
                      <question value="cc-subset-pipette"/>
                      <operator value="="/>
                      <answerCoding>
                        <system value="http://loinc.org"/>
                        <code value="2823-3"/>
                      </answerCoding>
                    </enableWhen>
                    <item>
                      <linkId value="specimenDefinitions"/>
                      <text value="Set of possible Specimens"/>
                      <type value="choice"/>
                      <repeats value="false"/>
                      <answerOption>
                        <valueCoding>
                          <system value="http://snomed.info/sct"/>
                          <code value="122554006"/>
                          <display value="Capillary blood specimen (specimen)"/>
                        </valueCoding>
                      </answerOption>
                      <answerOption>
                        <valueCoding>
                          <system value="http://snomed.info/sct"/>
                          <code value="122555007"/>
                          <display value="Venous blood specimen (specimen)"/>
                        </valueCoding>
                      </answerOption>
                    </item>
                  </item>
                </item>
              </item>
              <item>
                <linkId value="hematology.labServices"/>
                <text value="Hematology Lab Services"/>
                <type value="group"/>
                <item>
                  <linkId value="hemato-subset-pipette"/>
                  <text value="Hämatologie Subset"/>
                  <type value="choice"/>
                  <repeats value="true"/>
                  <answerOption>
                    <valueCoding>
                      <system value="http://loinc.org"/>
                      <code value="24360-0"/>
                      <display value="Hemoglobin and Hematocrit panel - Blood"/>
                    </valueCoding>
                  </answerOption>
                  <answerOption>
                    <valueCoding>
                      <system value="http://loinc.org"/>
                      <code value="43113-0"/>
                      <display value="Hemoglobin electrophoresis panel in Blood"/>
                    </valueCoding>
                  </answerOption>
                  <answerOption>
                    <valueCoding>
                      <system value="http://loinc.org"/>
                      <code value="57021-8"/>
                      <display value="CBC W Auto Differential panel - Blood"/>
                    </valueCoding>
                  </answerOption>
                  <answerOption>
                    <valueCoding>
                      <system value="http://loinc.org"/>
                      <code value="58410-2"/>
                      <display value="CBC panel - Blood by Automated count"/>
                    </valueCoding>
                  </answerOption>
                  <answerOption>
                    <valueCoding>
                      <system value="http://loinc.org"/>
                      <code value="57021-8"/>
                      <display value="CBC W Auto Differential panel - Blood"/>
                    </valueCoding>
                  </answerOption>
                </item>
              </item>
            </item>
          </item>
          <item>
            <linkId value="lab-compendium.Schildknecht"/>
            <definition value="http://fhir.ch/ig/ch-lab-order/Composition/Schildknecht-Catalog-Header"/>
            <text value="Schildknecht Compendium"/>
            <type value="boolean"/>
            <item>
              <linkId value="lab-compendium.Schildknecht.labServices"/>
              <text value="Analysen Labor Schildknecht"/>
              <type value="group"/>
              <enableWhen>
                <question value="receiver.organization.name"/>
                <operator value="="/>
                <answerString value="Schildknecht"/>
              </enableWhen>
              <item>
                <linkId value="test-panel"/>
                <text value="Order for test panel"/>
                <type value="boolean"/>
                <repeats value="false"/>
                <item>
                  <linkId value="lab-compendium.Schildknecht.panels"/>
                  <text value="Testpanel Labor Schildknecht"/>
                  <type value="group"/>
                  <enableWhen>
                    <question value="test-panel"/>
                    <operator value="="/>
                    <answerBoolean value="true"/>
                  </enableWhen>
                  <item>
                    <linkId value="available-test-panels"/>
                    <text value="verfügbare Test Panels Schildknecht"/>
                    <type value="group"/>
                    <item>
                      <linkId value="test-panel-schildknecht"/>
                      <text value="Testpanel wählen"/>
                      <type value="choice"/>
                      <repeats value="true"/>
                      <answerOption>
                        <valueCoding>
                          <system value="http://loinc.org"/>
                          <code value="24360-0"/>
                          <display value="Hemoglobin and Hematocrit panel - Blood"/>
                        </valueCoding>
                      </answerOption>
                      <answerOption>
                        <valueCoding>
                          <system value="http://loinc.org"/>
                          <code value="24326-1"/>
                          <display value="Electrolytes 1998 panel - Serum or Plasma"/>
                        </valueCoding>
                      </answerOption>
                      <answerOption>
                        <valueCoding>
                          <system value="http://loinc.org"/>
                          <code value="24331-1"/>
                          <display value="Lipid 1996 panel - Serum or Plasma"/>
                        </valueCoding>
                      </answerOption>
                    </item>
                  </item>
                </item>
              </item>
              <item>
                <linkId value="single-test"/>
                <text value="Order for single test"/>
                <type value="boolean"/>
                <repeats value="false"/>
                <item>
                  <linkId value="lab-compendium.Schildknecht.singletests"/>
                  <text value="Einzeltest Labor Schildknecht"/>
                  <type value="group"/>
                  <enableWhen>
                    <question value="single-test"/>
                    <operator value="="/>
                    <answerBoolean value="true"/>
                  </enableWhen>
                  <item>
                    <linkId value="available-single-tests"/>
                    <text value="verfügbare Einzeltests Schildknecht"/>
                    <type value="group"/>
                    <item>
                      <linkId value="single-test-schildknecht"/>
                      <text value="Einzeltest wählen"/>
                      <type value="choice"/>
                      <repeats value="true"/>
                      <answerOption>
                        <valueCoding>
                          <system value="http://loinc.org"/>
                          <code value="2823-3"/>
                          <display value="Potassium [Moles/volume] in Serum or Plasma"/>
                        </valueCoding>
                      </answerOption>
                      <answerOption>
                        <valueCoding>
                          <system value="http://loinc.org"/>
                          <code value="2951-2"/>
                          <display value="Sodium [Moles/volume] in Serum or Plasma"/>
                        </valueCoding>
                      </answerOption>
                      <answerOption>
                        <valueCoding>
                          <system value="http://loinc.org"/>
                          <code value="2075-0"/>
                          <display value="Chloride [Moles/volume] in Serum or Plasma"/>
                        </valueCoding>
                      </answerOption>
                    </item>
                  </item>
                </item>
              </item>
            </item>
          </item>
        </item>
      </Questionnaire>
    </resource>
  </entry>
  <entry>
    <fullUrl value="http://example.com/fhir/QuestionnaireResponse/LabOrder-qr"/>
    <resource>
      <QuestionnaireResponse>
        <id value="LabOrder-qr"/>
        <meta>
          <versionId value="1"/>
          <lastUpdated value="2019-04-01T20:17:53.340+00:00"/>
          <profile value="http://fhir.ch/ig/ch-orf/StructureDefinition/ch-orf-questionnaireresponse"/>
        </meta>
        <text>
          <status value="generated"/><div xmlns="http://www.w3.org/1999/xhtml"><a name="QuestionnaireResponse_LabOrder-qr"> </a><p><b>Generated Narrative: QuestionnaireResponse </b><a name="LabOrder-qr"> </a><a name="hcLabOrder-qr"> </a></p><div style="display: inline-block; background-color: #d9e0e7; padding: 6px; margin: 4px; border: 1px solid #8da1b4; border-radius: 5px; line-height: 60%"><p style="margin-bottom: 0px">ResourceQuestionnaireResponse &quot;LabOrder-qr&quot; Version&quot;1&quot; Updated&quot;2019-04-01 20:17:53+0000&quot; </p><p style="margin-bottom: 0px">Profile: <a href="http://fhir.ch/ig/ch-orf/2.0.1/StructureDefinition-ch-orf-questionnaireresponse.html">CH ORF QuestionnaireResponse</a></p></div><p><b>questionnaire</b>: <a href="Questionnaire-LabOrder-form.html">Questionnaire Lab Order Case Studies</a></p><p><b>status</b>: completed</p><blockquote><p><b>item</b></p><p><b>linkId</b>: order</p><p><b>text</b>: Auftrag</p><blockquote><p><b>item</b></p><p><b>linkId</b>: order.placerOrderIdentifier</p><p><b>text</b>: Auftragsnummer des Auftraggebers</p><blockquote><p><b>answer</b></p></blockquote></blockquote><blockquote><p><b>item</b></p><p><b>linkId</b>: order.placerOrderIdentifierDomain</p><p><b>text</b>: Identifier Domain der Auftragsnummer des Auftraggebers</p><blockquote><p><b>answer</b></p></blockquote></blockquote><blockquote><p><b>item</b></p><p><b>linkId</b>: order.precedentDocumentIdentifier</p><p><b>text</b>: Identifier des Vorgängerdokuments</p><blockquote><p><b>answer</b></p></blockquote></blockquote><blockquote><p><b>item</b></p><p><b>linkId</b>: order.notificationContactDocument</p><p><b>text</b>: Dringender Benachrichtigungskontakt für dieses Dokument</p><blockquote><p><b>item</b></p></blockquote></blockquote><blockquote><p><b>item</b></p><p><b>linkId</b>: order.notificationContactDocumentResponse</p><p><b>text</b>: Dringender Benachrichtigungskontakt für die Antwort auf dieses Dokument</p><blockquote><p><b>item</b></p></blockquote></blockquote><blockquote><p><b>item</b></p><p><b>linkId</b>: order.priority</p><p><b>text</b>: Auftragspriorität</p><blockquote><p><b>answer</b></p></blockquote></blockquote></blockquote><blockquote><p><b>item</b></p><p><b>linkId</b>: receiver</p><p><b>text</b>: Empfänger</p><blockquote><p><b>item</b></p><p><b>linkId</b>: receiver.practitioner</p><p><b>text</b>: Empfangende Person</p><blockquote><p><b>item</b></p></blockquote><blockquote><p><b>item</b></p></blockquote><blockquote><p><b>item</b></p></blockquote><blockquote><p><b>item</b></p></blockquote><blockquote><p><b>item</b></p></blockquote><blockquote><p><b>item</b></p></blockquote></blockquote><blockquote><p><b>item</b></p><p><b>linkId</b>: receiver.organization</p><p><b>text</b>: Empfangende Organisation</p><blockquote><p><b>item</b></p></blockquote><blockquote><p><b>item</b></p></blockquote><blockquote><p><b>item</b></p></blockquote><blockquote><p><b>item</b></p></blockquote><blockquote><p><b>item</b></p></blockquote></blockquote></blockquote><blockquote><p><b>item</b></p><p><b>linkId</b>: patient</p><p><b>text</b>: Patient</p><blockquote><p><b>item</b></p><p><b>linkId</b>: patient.familyName</p><p><b>text</b>: Name</p><blockquote><p><b>answer</b></p></blockquote></blockquote><blockquote><p><b>item</b></p><p><b>linkId</b>: patient.maidenName</p><p><b>text</b>: Ledigname</p><blockquote><p><b>answer</b></p></blockquote></blockquote><blockquote><p><b>item</b></p><p><b>linkId</b>: patient.givenName</p><p><b>text</b>: Vorname</p><blockquote><p><b>answer</b></p></blockquote></blockquote><blockquote><p><b>item</b></p><p><b>linkId</b>: patient.localPid</p><p><b>text</b>: Lokale Patienten-ID</p><blockquote><p><b>answer</b></p></blockquote></blockquote><blockquote><p><b>item</b></p><p><b>linkId</b>: patient.birthDate</p><p><b>text</b>: Geburtsdatum</p><blockquote><p><b>answer</b></p></blockquote></blockquote><blockquote><p><b>item</b></p><p><b>linkId</b>: patient.gender</p><p><b>text</b>: Geschlecht</p><blockquote><p><b>answer</b></p></blockquote></blockquote><blockquote><p><b>item</b></p><p><b>linkId</b>: patient.maritalStatus</p><p><b>text</b>: Zivilstand</p><blockquote><p><b>answer</b></p></blockquote></blockquote><blockquote><p><b>item</b></p><p><b>linkId</b>: patient.phone</p><p><b>text</b>: Telefon</p><blockquote><p><b>answer</b></p></blockquote></blockquote><blockquote><p><b>item</b></p><p><b>linkId</b>: patient.email</p><p><b>text</b>: E-Mail</p><blockquote><p><b>answer</b></p></blockquote></blockquote><blockquote><p><b>item</b></p><p><b>linkId</b>: patient.streetAddressLine</p><p><b>text</b>: Strasse, Hausnummer, Postfach etc.</p><blockquote><p><b>answer</b></p></blockquote><blockquote><p><b>answer</b></p></blockquote></blockquote><blockquote><p><b>item</b></p><p><b>linkId</b>: patient.postalCode</p><p><b>text</b>: PLZ</p><blockquote><p><b>answer</b></p></blockquote></blockquote><blockquote><p><b>item</b></p><p><b>linkId</b>: patient.city</p><p><b>text</b>: Ort</p><blockquote><p><b>answer</b></p></blockquote></blockquote><blockquote><p><b>item</b></p><p><b>linkId</b>: patient.country</p><p><b>text</b>: Land</p><blockquote><p><b>answer</b></p></blockquote></blockquote></blockquote><blockquote><p><b>item</b></p><p><b>linkId</b>: sender</p><p><b>text</b>: Absender</p><blockquote><p><b>item</b></p><p><b>linkId</b>: sender.author</p><p><b>text</b>: Verantwortlicher</p><blockquote><p><b>item</b></p></blockquote><blockquote><p><b>item</b></p></blockquote></blockquote><blockquote><p><b>item</b></p><p><b>linkId</b>: sender.dataenterer</p><p><b>text</b>: Erfasser</p><blockquote><p><b>item</b></p></blockquote></blockquote></blockquote><blockquote><p><b>item</b></p><p><b>linkId</b>: receiverCopies</p><p><b>text</b>: Kopieempfänger</p><blockquote><p><b>item</b></p><p><b>linkId</b>: receiverCopy</p><p><b>text</b>: Kopieempfangende Organisation oder Person</p><blockquote><p><b>item</b></p></blockquote><blockquote><p><b>item</b></p></blockquote><blockquote><p><b>item</b></p></blockquote><blockquote><p><b>item</b></p></blockquote><blockquote><p><b>item</b></p></blockquote><blockquote><p><b>item</b></p></blockquote></blockquote><blockquote><p><b>item</b></p><p><b>linkId</b>: receiverCopy</p><p><b>text</b>: Kopieempfangende Organisation oder Person</p><blockquote><p><b>item</b></p></blockquote><blockquote><p><b>item</b></p></blockquote><blockquote><p><b>item</b></p></blockquote><blockquote><p><b>item</b></p></blockquote><blockquote><p><b>item</b></p></blockquote><blockquote><p><b>item</b></p></blockquote><blockquote><p><b>item</b></p></blockquote><blockquote><p><b>item</b></p></blockquote></blockquote></blockquote></div>
        </text>
        <questionnaire value="http://fhir.ch/ig/ch-lab-order/Questionnaire/LabOrder-form"/>
        <status value="completed"/>
        <item>
          <linkId value="order"/>
          <text value="Auftrag"/>
          <item>
            <linkId value="order.placerOrderIdentifier"/>
            <text value="Auftragsnummer des Auftraggebers"/>
            <answer>
              <valueString value="123"/>
            </answer>
          </item>
          <item>
            <linkId value="order.placerOrderIdentifierDomain"/>
            <text value="Identifier Domain der Auftragsnummer des Auftraggebers"/>
            <answer>
              <valueString value="urn:oid:2.16.756.5.30"/>
            </answer>
          </item>
          <item>
            <linkId value="order.precedentDocumentIdentifier"/>
            <text value="Identifier des Vorgängerdokuments"/>
            <answer>
              <valueString value="1622f2fb-6ba3-4532-9aed-35b158def187"/>
            </answer>
          </item>
          <item>
            <linkId value="order.notificationContactDocument"/>
            <text value="Dringender Benachrichtigungskontakt für dieses Dokument"/>
            <item>
              <linkId value="order.notificationContactDocument.practitioner"/>
              <text value="Zu benachrichtigende Person"/>
              <item>
                <linkId value="order.notificationContactDocument.practitioner.title"/>
                <text value="Titel"/>
                <answer>
                  <valueString value="Dr. med."/>
                </answer>
              </item>
              <item>
                <linkId value="order.notificationContactDocument.practitioner.familyName"/>
                <text value="Name"/>
                <answer>
                  <valueString value="Erlenmeyer"/>
                </answer>
              </item>
              <item>
                <linkId value="order.notificationContactDocument.practitioner.givenName"/>
                <text value="Vorname"/>
                <answer>
                  <valueString value="Eva"/>
                </answer>
              </item>
              <item>
                <linkId value="order.notificationContactDocument.practitioner.phone"/>
                <text value="Telefon"/>
                <answer>
                  <valueString value="033 444 55 66"/>
                </answer>
              </item>
              <item>
                <linkId value="order.notificationContactDocument.practitioner.email"/>
                <text value="E-Mail"/>
                <answer>
                  <valueString value="eva.erlenmeyer@labor-pipette.ch"/>
                </answer>
              </item>
            </item>
          </item>
          <item>
            <linkId value="order.notificationContactDocumentResponse"/>
            <text value="Dringender Benachrichtigungskontakt für die Antwort auf dieses Dokument"/>
            <item>
              <linkId value="order.notificationContactDocumentResponse.practitioner"/>
              <text value="Zu benachrichtigende Person"/>
              <item>
                <linkId value="order.notificationContactDocumentResponse.practitioner.title"/>
                <text value="Titel"/>
                <answer>
                  <valueString value="Dr. med."/>
                </answer>
              </item>
              <item>
                <linkId value="order.notificationContactDocumentResponse.practitioner.familyName"/>
                <text value="Name"/>
                <answer>
                  <valueString value="Mustermann"/>
                </answer>
              </item>
              <item>
                <linkId value="order.notificationContactDocumentResponse.practitioner.givenName"/>
                <text value="Vorname"/>
                <answer>
                  <valueString value="Marc"/>
                </answer>
              </item>
              <item>
                <linkId value="order.notificationContactDocumentResponse.practitioner.phone"/>
                <text value="Telefon"/>
                <answer>
                  <valueString value="033 444 55 66"/>
                </answer>
              </item>
              <item>
                <linkId value="order.notificationContactDocumentResponse.practitioner.email"/>
                <text value="E-Mail"/>
                <answer>
                  <valueString value="peter.presto@arztpraxis.ch"/>
                </answer>
              </item>
            </item>
          </item>
          <item>
            <linkId value="order.priority"/>
            <text value="Auftragspriorität"/>
            <answer>
              <valueCoding>
                <system value="http://hl7.org/fhir/request-priority"/>
                <code value="routine"/>
              </valueCoding>
            </answer>
          </item>
        </item>
        <item>
          <linkId value="receiver"/>
          <text value="Empfänger"/>
          <item>
            <linkId value="receiver.practitioner"/>
            <text value="Empfangende Person"/>
            <item>
              <linkId value="receiver.practitioner.title"/>
              <text value="Titel"/>
              <answer>
                <valueString value="Dr. med."/>
              </answer>
            </item>
            <item>
              <linkId value="receiver.practitioner.familyName"/>
              <text value="Name"/>
              <answer>
                <valueString value="Erlenmeyer"/>
              </answer>
            </item>
            <item>
              <linkId value="receiver.practitioner.givenName"/>
              <text value="Vorname"/>
              <answer>
                <valueString value="Eva"/>
              </answer>
            </item>
            <item>
              <linkId value="receiver.practitioner.gln"/>
              <text value="GLN"/>
              <answer>
                <valueString value="7601000050703"/>
              </answer>
            </item>
            <item>
              <linkId value="receiver.practitioner.phone"/>
              <text value="Telefon"/>
              <answer>
                <valueString value="+41322552525"/>
              </answer>
            </item>
            <item>
              <linkId value="receiver.practitioner.email"/>
              <text value="E-Mail"/>
              <answer>
                <valueString value="eva.erlenmeyer@labor-pipette.ch"/>
              </answer>
            </item>
          </item>
          <item>
            <linkId value="receiver.organization"/>
            <text value="Empfangende Organisation"/>
            <item>
              <linkId value="receiver.organization.name"/>
              <text value="Name der Organisation"/>
              <answer>
                <valueString value="Labor Pipette"/>
              </answer>
            </item>
            <item>
              <linkId value="receiver.organization.streetAddressLine"/>
              <text value="Strasse, Hausnummer, Postfach etc."/>
              <answer>
                <valueString value="Laborstrasse 23"/>
              </answer>
              <answer>
                <valueString value="Postfach 44"/>
              </answer>
            </item>
            <item>
              <linkId value="receiver.organization.postalCode"/>
              <text value="PLZ"/>
              <answer>
                <valueString value="4600"/>
              </answer>
            </item>
            <item>
              <linkId value="receiver.organization.city"/>
              <text value="Ort"/>
              <answer>
                <valueString value="Olten"/>
              </answer>
            </item>
            <item>
              <linkId value="receiver.organization.country"/>
              <text value="Land"/>
              <answer>
                <valueString value="Schweiz"/>
              </answer>
            </item>
          </item>
        </item>
        <item>
          <linkId value="patient"/>
          <text value="Patient"/>
          <item>
            <linkId value="patient.familyName"/>
            <text value="Name"/>
            <answer>
              <valueString value="Guggindieluft"/>
            </answer>
          </item>
          <item>
            <linkId value="patient.maidenName"/>
            <text value="Ledigname"/>
            <answer>
              <valueString value="Bering"/>
            </answer>
          </item>
          <item>
            <linkId value="patient.givenName"/>
            <text value="Vorname"/>
            <answer>
              <valueString value="Hans"/>
            </answer>
          </item>
          <item>
            <linkId value="patient.localPid"/>
            <text value="Lokale Patienten-ID"/>
            <answer>
              <valueString value="11.22.33.5678"/>
            </answer>
          </item>
          <item>
            <linkId value="patient.birthDate"/>
            <text value="Geburtsdatum"/>
            <answer>
              <valueDate value="1981-01-01"/>
            </answer>
          </item>
          <item>
            <linkId value="patient.gender"/>
            <text value="Geschlecht"/>
            <answer>
              <valueCoding>
                <system value="http://hl7.org/fhir/administrative-gender"/>
                <code value="male"/>
              </valueCoding>
            </answer>
          </item>
          <item>
            <linkId value="patient.maritalStatus"/>
            <text value="Zivilstand"/>
            <answer>
              <valueCoding>
                <system value="http://fhir.ch/ig/ch-core/CodeSystem/ech-11-maritalstatus"/>
                <code value="5"/>
                <display value="unverheiratet"/>
              </valueCoding>
            </answer>
          </item>
          <item>
            <linkId value="patient.phone"/>
            <text value="Telefon"/>
            <answer>
              <valueString value="079 979 79 79"/>
            </answer>
          </item>
          <item>
            <linkId value="patient.email"/>
            <text value="E-Mail"/>
            <answer>
              <valueString value="erika@musterfrau.ch"/>
            </answer>
          </item>
          <item>
            <linkId value="patient.streetAddressLine"/>
            <text value="Strasse, Hausnummer, Postfach etc."/>
            <answer>
              <valueString value="Musterweg"/>
            </answer>
            <answer>
              <valueString value="6a"/>
            </answer>
          </item>
          <item>
            <linkId value="patient.postalCode"/>
            <text value="PLZ"/>
            <answer>
              <valueString value="8000"/>
            </answer>
          </item>
          <item>
            <linkId value="patient.city"/>
            <text value="Ort"/>
            <answer>
              <valueString value="Zürich"/>
            </answer>
          </item>
          <item>
            <linkId value="patient.country"/>
            <text value="Land"/>
            <answer>
              <valueString value="Schweiz"/>
            </answer>
          </item>
        </item>
        <item>
          <linkId value="sender"/>
          <text value="Absender"/>
          <item>
            <linkId value="sender.author"/>
            <text value="Verantwortlicher"/>
            <item>
              <linkId value="sender.author.practitioner"/>
              <text value="Verantwortliche Person"/>
              <item>
                <linkId value="sender.author.practitioner.title"/>
                <text value="Titel"/>
                <answer>
                  <valueString value="Dr. med."/>
                </answer>
              </item>
              <item>
                <linkId value="sender.author.practitioner.familyName"/>
                <text value="Name"/>
                <answer>
                  <valueString value="Mustermann"/>
                </answer>
              </item>
              <item>
                <linkId value="sender.author.practitioner.givenName"/>
                <text value="Vorname"/>
                <answer>
                  <valueString value="Marc"/>
                </answer>
              </item>
              <item>
                <linkId value="sender.author.practitioner.gln"/>
                <text value="GLN"/>
                <answer>
                  <valueString value="7601000034321"/>
                </answer>
              </item>
              <item>
                <linkId value="sender.author.practitioner.zsr"/>
                <text value="ZSR"/>
                <answer>
                  <valueString value="A123309"/>
                </answer>
              </item>
              <item>
                <linkId value="sender.author.practitioner.phone"/>
                <text value="Telefon"/>
                <answer>
                  <valueString value="033 333 22 11"/>
                </answer>
              </item>
              <item>
                <linkId value="sender.author.practitioner.email"/>
                <text value="E-Mail"/>
                <answer>
                  <valueString value="marc.mustermann@gruppenpraxis.ch"/>
                </answer>
              </item>
            </item>
            <item>
              <linkId value="sender.author.organization"/>
              <text value="Verantwortliche Organisation"/>
              <item>
                <linkId value="sender.author.organization.name"/>
                <text value="Name der Organisation"/>
                <answer>
                  <valueString value="Gruppenpraxis"/>
                </answer>
              </item>
              <item>
                <linkId value="sender.author.organization.streetAddressLine"/>
                <text value="Strasse, Hausnummer, Postfach etc."/>
                <answer>
                  <valueString value="Gerbergasse 12"/>
                </answer>
                <answer>
                  <valueString value="Postfach 144"/>
                </answer>
              </item>
              <item>
                <linkId value="sender.author.organization.postalCode"/>
                <text value="PLZ"/>
                <answer>
                  <valueString value="4600"/>
                </answer>
              </item>
              <item>
                <linkId value="sender.author.organization.city"/>
                <text value="Ort"/>
                <answer>
                  <valueString value="Olten"/>
                </answer>
              </item>
              <item>
                <linkId value="sender.author.organization.country"/>
                <text value="Land"/>
                <answer>
                  <valueString value="Schweiz"/>
                </answer>
              </item>
            </item>
          </item>
          <item>
            <linkId value="sender.dataenterer"/>
            <text value="Erfasser"/>
            <item>
              <linkId value="sender.dataenterer.practitioner"/>
              <text value="Erfassende Person"/>
              <item>
                <linkId value="sender.dataenterer.practitioner.familyName"/>
                <text value="Name"/>
                <answer>
                  <valueString value="Mustermann"/>
                </answer>
              </item>
              <item>
                <linkId value="sender.dataenterer.practitioner.givenName"/>
                <text value="Vorname"/>
                <answer>
                  <valueString value="Marc"/>
                </answer>
              </item>
              <item>
                <linkId value="sender.dataenterer.practitioner.phone"/>
                <text value="Telefon"/>
                <answer>
                  <valueString value="033 333 22 11"/>
                </answer>
              </item>
              <item>
                <linkId value="sender.dataenterer.practitioner.email"/>
                <text value="E-Mail"/>
                <answer>
                  <valueString value="marc.mustermann@gruppenpraxis.ch"/>
                </answer>
              </item>
            </item>
          </item>
        </item>
        <item>
          <linkId value="receiverCopies"/>
          <text value="Kopieempfänger"/>
          <item>
            <linkId value="receiverCopy"/>
            <text value="Kopieempfangende Organisation oder Person"/>
            <item>
              <linkId value="receiverCopy.organization.name"/>
              <text value="Name der Organisation"/>
              <answer>
                <valueString value="Praxis Seeblick"/>
              </answer>
            </item>
            <item>
              <linkId value="receiverCopy.title"/>
              <text value="Titel"/>
              <answer>
                <valueString value="Dr. med."/>
              </answer>
            </item>
            <item>
              <linkId value="receiverCopy.familyName"/>
              <text value="Name"/>
              <answer>
                <valueString value="Meier"/>
              </answer>
            </item>
            <item>
              <linkId value="receiverCopy.givenName"/>
              <text value="Vorname"/>
              <answer>
                <valueString value="Sabine"/>
              </answer>
            </item>
            <item>
              <linkId value="receiverCopy.phone"/>
              <text value="Telefon"/>
              <answer>
                <valueString value="044 333 22 11"/>
              </answer>
            </item>
            <item>
              <linkId value="receiverCopy.email"/>
              <text value="E-Mail"/>
              <answer>
                <valueString value="sabine.meier@praxisseeblick.ch"/>
              </answer>
            </item>
          </item>
          <item>
            <linkId value="receiverCopy"/>
            <text value="Kopieempfangende Organisation oder Person"/>
            <item>
              <linkId value="receiverCopy.familyName"/>
              <text value="Name"/>
              <answer>
                <valueString value="Meier"/>
              </answer>
            </item>
            <item>
              <linkId value="receiverCopy.givenName"/>
              <text value="Vorname"/>
              <answer>
                <valueString value="Sabine"/>
              </answer>
            </item>
            <item>
              <linkId value="receiverCopy.phone"/>
              <text value="Telefon"/>
              <answer>
                <valueString value="044 333 22 11"/>
              </answer>
            </item>
            <item>
              <linkId value="receiverCopy.email"/>
              <text value="E-Mail"/>
              <answer>
                <valueString value="sabine.meier@praxis.ch"/>
              </answer>
            </item>
            <item>
              <linkId value="receiverCopy.streetAddressLine"/>
              <text value="Strasse, Hausnummer, Postfach etc."/>
              <answer>
                <valueString value="Musterweg"/>
              </answer>
              <answer>
                <valueString value="6a"/>
              </answer>
            </item>
            <item>
              <linkId value="receiverCopy.postalCode"/>
              <text value="PLZ"/>
              <answer>
                <valueString value="6330"/>
              </answer>
            </item>
            <item>
              <linkId value="receiverCopy.city"/>
              <text value="Ort"/>
              <answer>
                <valueString value="Cham"/>
              </answer>
            </item>
            <item>
              <linkId value="receiverCopy.country"/>
              <text value="Land"/>
              <answer>
                <valueString value="Schweiz"/>
              </answer>
            </item>
          </item>
        </item>
      </QuestionnaireResponse>
    </resource>
  </entry>
  <entry>
    <fullUrl value="http://example.com/fhir/ServiceRequest/LabOrder-potassium"/>
    <resource>
      <ServiceRequest>
        <id value="LabOrder-potassium"/>
        <meta>
          <profile value="http://fhir.ch/ig/ch-lab-order/StructureDefinition/ch-lab-order-SR-singletest"/>
        </meta>
        <text>
          <status value="generated"/><div xmlns="http://www.w3.org/1999/xhtml"><a name="ServiceRequest_LabOrder-potassium"> </a><p><b>Generated Narrative: ServiceRequest </b><a name="LabOrder-potassium"> </a><a name="hcLabOrder-potassium"> </a></p><div style="display: inline-block; background-color: #d9e0e7; padding: 6px; margin: 4px; border: 1px solid #8da1b4; border-radius: 5px; line-height: 60%"><p style="margin-bottom: 0px">ResourceServiceRequest &quot;LabOrder-potassium&quot; </p><p style="margin-bottom: 0px">Profile: <a href="StructureDefinition-ch-lab-order-SR-singletest.html">CH LAB-Order-SR Single-test</a></p></div><p><b>identifier</b>: Placer Identifier/123</p><p><b>instantiatesCanonical</b>: <a href="ActivityDefinition-procedure-potassium-serum.html">Procedure - potassium measurement on in vitro blood serum</a></p><p><b>requisition</b>: Placer Identifier/ReqID-1234567</p><p><b>status</b>: active</p><p><b>intent</b>: original-order</p><p><b>priority</b>: urgent</p><p><b>code</b>: Potassium [Moles/volume] in Serum or Plasma <span style="background: LightGoldenRodYellow; margin: 4px; border: 1px solid khaki"> (<a href="https://loinc.org/">LOINC</a>#2823-3)</span></p><p><b>subject</b>: See on this page: Patient/HansGuggindieluft</p><p><b>requester</b>: See on this page: PractitionerRole/MarcMustermannGruppenpraxis</p><p><b>reasonCode</b>: Chronic renal failure syndrome (disorder) <span style="background: LightGoldenRodYellow; margin: 4px; border: 1px solid khaki"> (<a href="https://browser.ihtsdotools.org/">SNOMED CT</a>#90688005)</span></p><p><b>insurance</b>: See on this page: Coverage/HealthInsuranceCard</p><p><b>specimen</b>: See on this page: Specimen/Serum: Serum specimen</p></div>
        </text>
        <identifier>
          <type>
            <coding>
              <system value="http://terminology.hl7.org/CodeSystem/v2-0203"/>
              <code value="PLAC"/>
              <display value="Placer Identifier"/>
            </coding>
          </type>
          <system value="urn:oid:2.16.756.5.30"/>
          <value value="123"/>
        </identifier>
        <instantiatesCanonical value="http://fhir.ch/ig/ch-lab-order/lab-compendium/ActivityDefinition/procedure-potassium-serum"/>
        <requisition>
          <type>
            <coding>
              <system value="http://terminology.hl7.org/CodeSystem/v2-0203"/>
              <code value="PLAC"/>
              <display value="Placer Identifier"/>
            </coding>
          </type>
          <system value="urn:oid:2.16.756.5.30"/>
          <value value="ReqID-1234567"/>
        </requisition>
        <status value="active"/>
        <intent value="original-order"/>
        <priority value="urgent"/>
        <code>
          <coding>
            <system value="http://loinc.org"/>
            <code value="2823-3"/>
            <display value="Potassium [Moles/volume] in Serum or Plasma"/>
          </coding>
        </code>
        <subject>
          <reference value="Patient/HansGuggindieluft"/>
        </subject>
        <requester>
          <reference value="PractitionerRole/MarcMustermannGruppenpraxis"/>
        </requester>
        <reasonCode>
          <coding>
            <system value="http://snomed.info/sct"/>
            <code value="90688005"/>
          </coding>
          <text value="Chronic renal failure syndrome (disorder)"/>
        </reasonCode>
        <insurance>
          <reference value="Coverage/HealthInsuranceCard"/>
        </insurance>
        <specimen>
          <reference value="Specimen/Serum"/>
          <display value="Serum specimen"/>
        </specimen>
      </ServiceRequest>
    </resource>
  </entry>
</Bundle>