{
  "resourceType" : "Bundle",
  "id" : "3-gyn-document",
  "meta" : {
    "versionId" : "1",
    "lastUpdated" : "2019-04-01T20:18:41.341+00:00",
    "profile" : ["http://fhir.ch/ig/ch-lab-order/StructureDefinition/ch-lab-order-document-with-sr"]
  },
  "identifier" : {
    "system" : "urn:ietf:rfc:3986",
    "value" : "urn:uuid:26d3dff7-ab05-4737-a49c-5eccd33595f8"
  },
  "type" : "document",
  "timestamp" : "2019-04-01T20:18:41.341+00:00",
  "entry" : [{
    "fullUrl" : "http://example.com/fhir/Composition/3-gyn-with-sr",
    "resource" : {
      "resourceType" : "Composition",
      "id" : "3-gyn-with-sr",
      "meta" : {
        "versionId" : "1",
        "lastUpdated" : "2021-02-18T17:04:38.520+00:00",
        "profile" : ["http://fhir.ch/ig/ch-lab-order/StructureDefinition/ch-lab-order-composition-with-sr"]
      },
      "text" : {
        "status" : "additional",
        "div" : "<div xmlns=\"http://www.w3.org/1999/xhtml\"><div>Case study 3</div><div><h3>Annual gynaecological check-up</h3><p>The doctor`s assistent of the gynaecology department in the Olten group practice, Dr Peter Pap, prepares the next day`s consultations. As the practice only has a minimal laboratory of its own, certain patients are sent to the nearby Pipette laboratory outpatient clinic before the appointment, including the young patient Ms Marina Rubella, born 8. 8. 1992. In her practice software, the MPA prescribes the standard analyses agreed with the laboratory for the gynaecological 3-year check-up for patient Rubella. This also includes the Blood sample for the serotonary for any follow-up prescriptions. The laboratory transmits the results to the practice no later than 90 minutes after the Blood sample has been taken. Dr Pap prescribes the following orders during the consultation:</p><ul><li>Gynaecological cervical cytology: Pap smear - if indicated, detection and typing of HPV (human papilloma virus) should also be performed. Collection material according to the laboratory`s instructions. The cytological examination is carried out in the Pipette laboratory. The Pipette laboratory does not perform the typing itself.</li><li>Partial urine status (Combur9 test): carried out by the MPA in the practice: the following parameters are examined: pH, leucocytes, erythrocytes, nitrite, protein, glucose, ketones, urobilinogen, bilirubin (semi-quantitative examinations, results are probably entered manually into the practice laboratory system).</li><li>Urine bacteriology: collection material according to the laboratory`s instructions. General bact, incl. fungi to the laboratory pipette Transmission of the order is triggered by the MPA (collection time)</li><li>Supplementary order “Screening before pregnancy”: All tests can be carried out from the materials (serum, EDTA Blood) taken in advance in the outpatient clinic (hepatitis-Bc antibodies, HIV 1+2 (Ak+p24), rubella IgG, lues/syphilis screening test)</li><li>Mammography: Order for the Dr. Curie X-ray Institute.</li></ul></div></div>"
      },
      "extension" : [{
        "extension" : [{
          "url" : "enterer",
          "valueReference" : {
            "reference" : "PractitionerRole/PeterPapGruppenpraxis"
          }
        }],
        "url" : "http://fhir.ch/ig/ch-core/StructureDefinition/ch-ext-epr-dataenterer"
      },
      {
        "url" : "http://fhir.ch/ig/ch-orf/StructureDefinition/ch-orf-receiver",
        "valueReference" : {
          "reference" : "PractitionerRole/EvaErlenmeyerLaborPipette"
        }
      },
      {
        "url" : "http://fhir.ch/ig/ch-orf/StructureDefinition/ch-orf-copyreceiver",
        "valueReference" : {
          "reference" : "PractitionerRole/MarcMustermannGruppenpraxis"
        }
      }],
      "status" : "final",
      "type" : {
        "coding" : [{
          "system" : "http://snomed.info/sct",
          "code" : "721965002",
          "display" : "Laboratory order (record artifact)"
        }]
      },
      "category" : [{
        "coding" : [{
          "system" : "http://snomed.info/sct",
          "code" : "721963009",
          "display" : "Order (record artifact)"
        }]
      }],
      "subject" : {
        "reference" : "Patient/MarinaRubella"
      },
      "date" : "2020-03-31T11:46:09+02:00",
      "author" : [{
        "reference" : "PractitionerRole/PeterPapGruppenpraxis"
      }],
      "title" : "Laboratory Order 3-gyn",
      "section" : [{
        "title" : "Laboratory Order with Service Request 3-gyn",
        "code" : {
          "coding" : [{
            "system" : "http://snomed.info/sct",
            "code" : "721963009",
            "display" : "Order (record artifact)"
          }]
        },
        "text" : {
          "status" : "generated",
          "div" : "<div xmlns=\"http://www.w3.org/1999/xhtml\">Laboratory Order with Service Request 3-gyn</div>"
        },
        "entry" : [{
          "reference" : "ServiceRequest/3-gyn-service-request"
        }]
      }]
    }
  },
  {
    "fullUrl" : "http://example.com/fhir/Patient/MarinaRubella",
    "resource" : {
      "resourceType" : "Patient",
      "id" : "MarinaRubella",
      "meta" : {
        "profile" : ["http://fhir.ch/ig/ch-core/StructureDefinition/ch-core-patient"]
      },
      "text" : {
        "status" : "additional",
        "div" : "<div xmlns=\"http://www.w3.org/1999/xhtml\"><p><b>id</b>: MarinaRubella</p><p><b>meta</b>:</p><p><b>identifier</b>: 012/08.111113</p><p><b>name</b>: MarinaRubella</p><p><b>gender</b>: FEMALE</p><p><b>birthDate</b>: Aug 08, 1992</p><p><b>maritalStatus</b>: verheiratet <span style=\"background: LightGoldenRodYellow\">(Details : {$ech-11-maritalstatus code '2' = '2', given as 'verheiratet'})</span></p><h3>Communications</h3><table class=\"grid\"><tr><td>-</td><td><b>Language</b></td><td><b>Preferred</b></td></tr><tr><td>*</td><td>Italienisch (Schweiz) <span style=\"background: LightGoldenRodYellow\">(Details : {urn:ietf:bcp:47 code 'it-CH' = 'Italian (Region=Schweiz))</span></td><td>true</td></tr></table></div>"
      },
      "extension" : [{
        "url" : "http://hl7.org/fhir/StructureDefinition/patient-birthPlace",
        "valueAddress" : {
          "city" : "Mendrisio",
          "country" : "Schweiz"
        }
      },
      {
        "url" : "http://fhir.ch/ig/ch-core/StructureDefinition/ch-core-patient-ech-11-placeoforigin",
        "valueAddress" : {
          "city" : "Airolo",
          "state" : "TI"
        }
      },
      {
        "url" : "http://hl7.org/fhir/StructureDefinition/patient-religion",
        "valueCodeableConcept" : {
          "coding" : [{
            "system" : "http://terminology.hl7.org/CodeSystem/v3-ReligiousAffiliation",
            "code" : "1077",
            "display" : "Protestant"
          }]
        }
      }],
      "identifier" : [{
        "type" : {
          "coding" : [{
            "system" : "http://terminology.hl7.org/CodeSystem/v2-0203",
            "code" : "MR"
          }]
        },
        "system" : "urn:oid:2.16.756.5.30.999999.1",
        "value" : "012/08.111113"
      }],
      "name" : [{
        "use" : "official",
        "family" : "Rubella",
        "_family" : {
          "extension" : [{
            "url" : "http://fhir.ch/ig/ch-core/StructureDefinition/ch-ext-ech-11-name",
            "valueCode" : "officialName"
          }]
        },
        "given" : ["Marina"],
        "_given" : [{
          "extension" : [{
            "url" : "http://fhir.ch/ig/ch-core/StructureDefinition/ch-ext-ech-11-firstname",
            "valueCode" : "officialFirstName"
          }]
        }]
      },
      {
        "use" : "maiden",
        "family" : "Meier",
        "_family" : {
          "extension" : [{
            "url" : "http://fhir.ch/ig/ch-core/StructureDefinition/ch-ext-ech-11-name",
            "valueCode" : "originalName"
          }]
        }
      }],
      "telecom" : [{
        "system" : "phone",
        "value" : "+41 64 123 45 67",
        "use" : "home"
      },
      {
        "system" : "email",
        "value" : "marina.rubella@example.ch"
      }],
      "gender" : "female",
      "birthDate" : "1992-08-08",
      "address" : [{
        "use" : "home",
        "type" : "both",
        "line" : ["Via del bosco 88"],
        "city" : "Airolo",
        "postalCode" : "6780"
      }],
      "maritalStatus" : {
        "coding" : [{
          "system" : "http://fhir.ch/ig/ch-core/CodeSystem/ech-11-maritalstatus",
          "code" : "2",
          "display" : "verheiratet"
        }]
      },
      "communication" : [{
        "language" : {
          "coding" : [{
            "system" : "urn:ietf:bcp:47",
            "code" : "it-CH"
          }],
          "text" : "Italienisch (Schweiz)"
        },
        "preferred" : true
      }]
    }
  },
  {
    "fullUrl" : "http://example.com/fhir/Practitioner/MarcMustermann",
    "resource" : {
      "resourceType" : "Practitioner",
      "id" : "MarcMustermann",
      "meta" : {
        "profile" : ["http://fhir.ch/ig/ch-core/StructureDefinition/ch-core-practitioner"]
      },
      "text" : {
        "status" : "generated",
        "div" : "<div xmlns=\"http://www.w3.org/1999/xhtml\"><a name=\"Practitioner_MarcMustermann\"> </a><p><b>Generated Narrative: Practitioner </b><a name=\"MarcMustermann\"> </a><a name=\"hcMarcMustermann\"> </a></p><div style=\"display: inline-block; background-color: #d9e0e7; padding: 6px; margin: 4px; border: 1px solid #8da1b4; border-radius: 5px; line-height: 60%\"><p style=\"margin-bottom: 0px\">ResourcePractitioner &quot;MarcMustermann&quot; </p><p style=\"margin-bottom: 0px\">Profile: <a href=\"http://fhir.ch/ig/ch-core/4.0.1/StructureDefinition-ch-core-practitioner.html\">CH Core Practitioner</a></p></div><p><b>identifier</b>: <a href=\"https://www.gs1.org/standards/id-keys/gln\" title=\"Global Location Number\">GLN</a>/7601000050700, <code>urn:oid:2.16.756.5.30.1.123.100.2.1.1</code>/A123309</p><p><b>name</b>: Marc Mustermann (Official)</p><p><b>telecom</b>: ph: 033 444 22 11(WORK), <a href=\"mailto:marc.mustermann@gruppenpraxis.ch\">marc.mustermann@gruppenpraxis.ch</a></p></div>"
      },
      "identifier" : [{
        "system" : "urn:oid:2.51.1.3",
        "value" : "7601000050700"
      },
      {
        "system" : "urn:oid:2.16.756.5.30.1.123.100.2.1.1",
        "value" : "A123309"
      }],
      "name" : [{
        "use" : "official",
        "family" : "Mustermann",
        "given" : ["Marc"],
        "prefix" : ["Dr. med."],
        "_prefix" : [{
          "extension" : [{
            "url" : "http://hl7.org/fhir/StructureDefinition/iso21090-EN-qualifier",
            "valueCode" : "AC"
          }]
        }]
      }],
      "telecom" : [{
        "system" : "phone",
        "value" : "033 444 22 11",
        "use" : "work"
      },
      {
        "system" : "email",
        "value" : "marc.mustermann@gruppenpraxis.ch",
        "use" : "work"
      }]
    }
  },
  {
    "fullUrl" : "http://example.com/fhir/Organization/Gruppenpraxis",
    "resource" : {
      "resourceType" : "Organization",
      "id" : "Gruppenpraxis",
      "meta" : {
        "profile" : ["http://fhir.ch/ig/ch-core/StructureDefinition/ch-core-organization-epr"]
      },
      "text" : {
        "status" : "generated",
        "div" : "<div xmlns=\"http://www.w3.org/1999/xhtml\"><a name=\"Organization_Gruppenpraxis\"> </a><p><b>Generated Narrative: Organization </b><a name=\"Gruppenpraxis\"> </a><a name=\"hcGruppenpraxis\"> </a></p><div style=\"display: inline-block; background-color: #d9e0e7; padding: 6px; margin: 4px; border: 1px solid #8da1b4; border-radius: 5px; line-height: 60%\"><p style=\"margin-bottom: 0px\">ResourceOrganization &quot;Gruppenpraxis&quot; </p><p style=\"margin-bottom: 0px\">Profile: <a href=\"http://fhir.ch/ig/ch-core/4.0.1/StructureDefinition-ch-core-organization-epr.html\">CH Core Organization EPR</a></p></div><p><b>identifier</b>: <a href=\"https://www.gs1.org/standards/id-keys/gln\" title=\"Global Location Number\">GLN</a>/7601000241115</p><p><b>name</b>: Gruppenpraxis Olten</p><p><b>telecom</b>: <a href=\"tel:+41555556677\">+41555556677</a>, <a href=\"mailto:info@gruppenpraxis.ch\">info@gruppenpraxis.ch</a>, <a href=\"http://www.gruppenpraxis.ch\">http://www.gruppenpraxis.ch</a></p><p><b>address</b>: Gerbergasse 12 Olten 4600 CH </p></div>"
      },
      "identifier" : [{
        "system" : "urn:oid:2.51.1.3",
        "value" : "7601000241115"
      }],
      "name" : "Gruppenpraxis Olten",
      "telecom" : [{
        "system" : "phone",
        "value" : "+41555556677",
        "use" : "work"
      },
      {
        "system" : "email",
        "value" : "info@gruppenpraxis.ch",
        "use" : "work"
      },
      {
        "system" : "url",
        "value" : "http://www.gruppenpraxis.ch",
        "use" : "work"
      }],
      "address" : [{
        "line" : ["Gerbergasse 12"],
        "city" : "Olten",
        "postalCode" : "4600",
        "country" : "CH"
      }]
    }
  },
  {
    "fullUrl" : "http://example.com/fhir/PractitionerRole/MarcMustermannGruppenpraxis",
    "resource" : {
      "resourceType" : "PractitionerRole",
      "id" : "MarcMustermannGruppenpraxis",
      "meta" : {
        "profile" : ["http://fhir.ch/ig/ch-core/StructureDefinition/ch-core-practitionerrole"]
      },
      "text" : {
        "status" : "generated",
        "div" : "<div xmlns=\"http://www.w3.org/1999/xhtml\"><a name=\"PractitionerRole_MarcMustermannGruppenpraxis\"> </a><p><b>Generated Narrative: PractitionerRole </b><a name=\"MarcMustermannGruppenpraxis\"> </a><a name=\"hcMarcMustermannGruppenpraxis\"> </a></p><div style=\"display: inline-block; background-color: #d9e0e7; padding: 6px; margin: 4px; border: 1px solid #8da1b4; border-radius: 5px; line-height: 60%\"><p style=\"margin-bottom: 0px\">ResourcePractitionerRole &quot;MarcMustermannGruppenpraxis&quot; </p><p style=\"margin-bottom: 0px\">Profile: <a href=\"http://fhir.ch/ig/ch-core/4.0.1/StructureDefinition-ch-core-practitionerrole.html\">CH Core PractitionerRole</a></p></div><p><b>practitioner</b>: See on this page: Practitioner/MarcMustermann</p><p><b>organization</b>: See on this page: Organization/Gruppenpraxis</p></div>"
      },
      "practitioner" : {
        "reference" : "Practitioner/MarcMustermann"
      },
      "organization" : {
        "reference" : "Organization/Gruppenpraxis"
      }
    }
  },
  {
    "fullUrl" : "http://example.com/fhir/Practitioner/EvaErlenmeyer",
    "resource" : {
      "resourceType" : "Practitioner",
      "id" : "EvaErlenmeyer",
      "meta" : {
        "profile" : ["http://fhir.ch/ig/ch-core/StructureDefinition/ch-core-practitioner"]
      },
      "text" : {
        "status" : "generated",
        "div" : "<div xmlns=\"http://www.w3.org/1999/xhtml\"><a name=\"Practitioner_EvaErlenmeyer\"> </a><p><b>Generated Narrative: Practitioner </b><a name=\"EvaErlenmeyer\"> </a><a name=\"hcEvaErlenmeyer\"> </a></p><div style=\"display: inline-block; background-color: #d9e0e7; padding: 6px; margin: 4px; border: 1px solid #8da1b4; border-radius: 5px; line-height: 60%\"><p style=\"margin-bottom: 0px\">ResourcePractitioner &quot;EvaErlenmeyer&quot; </p><p style=\"margin-bottom: 0px\">Profile: <a href=\"http://fhir.ch/ig/ch-core/4.0.1/StructureDefinition-ch-core-practitioner.html\">CH Core Practitioner</a></p></div><p><b>identifier</b>: <a href=\"https://www.gs1.org/standards/id-keys/gln\" title=\"Global Location Number\">GLN</a>/7601000050717, <code>urn:oid:2.16.756.5.30.1.123.100.2.1.1</code>/A123315</p><p><b>name</b>: Eva Erlenmeyer (Official)</p><p><b>telecom</b>: ph: 033 444 55 66(WORK), <a href=\"mailto:eva.erlenmeyer@labor-pipette.ch\">eva.erlenmeyer@labor-pipette.ch</a></p></div>"
      },
      "identifier" : [{
        "system" : "urn:oid:2.51.1.3",
        "value" : "7601000050717"
      },
      {
        "system" : "urn:oid:2.16.756.5.30.1.123.100.2.1.1",
        "value" : "A123315"
      }],
      "name" : [{
        "use" : "official",
        "family" : "Erlenmeyer",
        "given" : ["Eva"],
        "prefix" : ["Dr. med."],
        "_prefix" : [{
          "extension" : [{
            "url" : "http://hl7.org/fhir/StructureDefinition/iso21090-EN-qualifier",
            "valueCode" : "AC"
          }]
        }]
      }],
      "telecom" : [{
        "system" : "phone",
        "value" : "033 444 55 66",
        "use" : "work"
      },
      {
        "system" : "email",
        "value" : "eva.erlenmeyer@labor-pipette.ch",
        "use" : "work"
      }]
    }
  },
  {
    "fullUrl" : "http://example.com/fhir/Organization/LaborPipette",
    "resource" : {
      "resourceType" : "Organization",
      "id" : "LaborPipette",
      "meta" : {
        "profile" : ["http://fhir.ch/ig/ch-core/StructureDefinition/ch-core-organization"]
      },
      "text" : {
        "status" : "generated",
        "div" : "<div xmlns=\"http://www.w3.org/1999/xhtml\"><a name=\"Organization_LaborPipette\"> </a><p><b>Generated Narrative: Organization </b><a name=\"LaborPipette\"> </a><a name=\"hcLaborPipette\"> </a></p><div style=\"display: inline-block; background-color: #d9e0e7; padding: 6px; margin: 4px; border: 1px solid #8da1b4; border-radius: 5px; line-height: 60%\"><p style=\"margin-bottom: 0px\">ResourceOrganization &quot;LaborPipette&quot; </p><p style=\"margin-bottom: 0px\">Profile: <a href=\"http://fhir.ch/ig/ch-core/4.0.1/StructureDefinition-ch-core-organization.html\">CH Core Organization</a></p></div><p><b>identifier</b>: <a href=\"https://www.gs1.org/standards/id-keys/gln\" title=\"Global Location Number\">GLN</a>/7601000234407</p><p><b>name</b>: Labor Pipette</p><p><b>telecom</b>: <a href=\"tel:+41223345566\">+41223345566</a>, <a href=\"mailto:info@labor-pipette.ch\">info@labor-pipette.ch</a>, <a href=\"http://www.labor-pipette.ch\">http://www.labor-pipette.ch</a></p><p><b>address</b>: Laborstrasse 23 Olten 4600 CH </p></div>"
      },
      "identifier" : [{
        "system" : "urn:oid:2.51.1.3",
        "value" : "7601000234407"
      }],
      "name" : "Labor Pipette",
      "telecom" : [{
        "system" : "phone",
        "value" : "+41223345566",
        "use" : "work"
      },
      {
        "system" : "email",
        "value" : "info@labor-pipette.ch",
        "use" : "work"
      },
      {
        "system" : "url",
        "value" : "http://www.labor-pipette.ch",
        "use" : "work"
      }],
      "address" : [{
        "line" : ["Laborstrasse 23"],
        "city" : "Olten",
        "postalCode" : "4600",
        "country" : "CH"
      }]
    }
  },
  {
    "fullUrl" : "http://example.com/fhir/PractitionerRole/EvaErlenmeyerLaborPipette",
    "resource" : {
      "resourceType" : "PractitionerRole",
      "id" : "EvaErlenmeyerLaborPipette",
      "meta" : {
        "profile" : ["http://fhir.ch/ig/ch-core/StructureDefinition/ch-core-practitionerrole"]
      },
      "text" : {
        "status" : "generated",
        "div" : "<div xmlns=\"http://www.w3.org/1999/xhtml\"><a name=\"PractitionerRole_EvaErlenmeyerLaborPipette\"> </a><p><b>Generated Narrative: PractitionerRole </b><a name=\"EvaErlenmeyerLaborPipette\"> </a><a name=\"hcEvaErlenmeyerLaborPipette\"> </a></p><div style=\"display: inline-block; background-color: #d9e0e7; padding: 6px; margin: 4px; border: 1px solid #8da1b4; border-radius: 5px; line-height: 60%\"><p style=\"margin-bottom: 0px\">ResourcePractitionerRole &quot;EvaErlenmeyerLaborPipette&quot; </p><p style=\"margin-bottom: 0px\">Profile: <a href=\"http://fhir.ch/ig/ch-core/4.0.1/StructureDefinition-ch-core-practitionerrole.html\">CH Core PractitionerRole</a></p></div><p><b>identifier</b>: <code>urn:oid:2.16.756.5.30.1.123.100.2.1.1</code>/A123444</p><p><b>practitioner</b>: See on this page: Practitioner/EvaErlenmeyer</p><p><b>organization</b>: See on this page: Organization/LaborPipette</p></div>"
      },
      "identifier" : [{
        "system" : "urn:oid:2.16.756.5.30.1.123.100.2.1.1",
        "value" : "A123444"
      }],
      "practitioner" : {
        "reference" : "Practitioner/EvaErlenmeyer"
      },
      "organization" : {
        "reference" : "Organization/LaborPipette"
      }
    }
  },
  {
    "fullUrl" : "http://example.com/fhir/Practitioner/PeterPap",
    "resource" : {
      "resourceType" : "Practitioner",
      "id" : "PeterPap",
      "meta" : {
        "profile" : ["http://fhir.ch/ig/ch-core/StructureDefinition/ch-core-practitioner"]
      },
      "text" : {
        "status" : "generated",
        "div" : "<div xmlns=\"http://www.w3.org/1999/xhtml\"><a name=\"Practitioner_PeterPap\"> </a><p><b>Generated Narrative: Practitioner </b><a name=\"PeterPap\"> </a><a name=\"hcPeterPap\"> </a></p><div style=\"display: inline-block; background-color: #d9e0e7; padding: 6px; margin: 4px; border: 1px solid #8da1b4; border-radius: 5px; line-height: 60%\"><p style=\"margin-bottom: 0px\">ResourcePractitioner &quot;PeterPap&quot; </p><p style=\"margin-bottom: 0px\">Profile: <a href=\"http://fhir.ch/ig/ch-core/4.0.1/StructureDefinition-ch-core-practitioner.html\">CH Core Practitioner</a></p></div><p><b>identifier</b>: <a href=\"https://www.gs1.org/standards/id-keys/gln\" title=\"Global Location Number\">GLN</a>/7601003050707, <code>urn:oid:2.16.756.5.30.1.123.100.2.1.1</code>/A123305</p><p><b>name</b>: Peter Pap (Official)</p><p><b>telecom</b>: ph: 032 333 22 40(WORK), <a href=\"mailto:peter.pap@gruppenpraxis.ch\">peter.pap@gruppenpraxis.ch</a></p></div>"
      },
      "identifier" : [{
        "system" : "urn:oid:2.51.1.3",
        "value" : "7601003050707"
      },
      {
        "system" : "urn:oid:2.16.756.5.30.1.123.100.2.1.1",
        "value" : "A123305"
      }],
      "name" : [{
        "use" : "official",
        "family" : "Pap",
        "given" : ["Peter"],
        "prefix" : ["Dr. med."],
        "_prefix" : [{
          "extension" : [{
            "url" : "http://hl7.org/fhir/StructureDefinition/iso21090-EN-qualifier",
            "valueCode" : "AC"
          }]
        }]
      }],
      "telecom" : [{
        "system" : "phone",
        "value" : "032 333 22 40",
        "use" : "work"
      },
      {
        "system" : "email",
        "value" : "peter.pap@gruppenpraxis.ch",
        "use" : "work"
      }]
    }
  },
  {
    "fullUrl" : "http://example.com/fhir/PractitionerRole/PeterPapGruppenpraxis",
    "resource" : {
      "resourceType" : "PractitionerRole",
      "id" : "PeterPapGruppenpraxis",
      "meta" : {
        "profile" : ["http://fhir.ch/ig/ch-core/StructureDefinition/ch-core-practitionerrole"]
      },
      "text" : {
        "status" : "generated",
        "div" : "<div xmlns=\"http://www.w3.org/1999/xhtml\"><a name=\"PractitionerRole_PeterPapGruppenpraxis\"> </a><p><b>Generated Narrative: PractitionerRole </b><a name=\"PeterPapGruppenpraxis\"> </a><a name=\"hcPeterPapGruppenpraxis\"> </a></p><div style=\"display: inline-block; background-color: #d9e0e7; padding: 6px; margin: 4px; border: 1px solid #8da1b4; border-radius: 5px; line-height: 60%\"><p style=\"margin-bottom: 0px\">ResourcePractitionerRole &quot;PeterPapGruppenpraxis&quot; </p><p style=\"margin-bottom: 0px\">Profile: <a href=\"http://fhir.ch/ig/ch-core/4.0.1/StructureDefinition-ch-core-practitionerrole.html\">CH Core PractitionerRole</a></p></div><p><b>practitioner</b>: See on this page: Practitioner/PeterPap</p><p><b>organization</b>: See on this page: Organization/Gruppenpraxis</p></div>"
      },
      "practitioner" : {
        "reference" : "Practitioner/PeterPap"
      },
      "organization" : {
        "reference" : "Organization/Gruppenpraxis"
      }
    }
  },
  {
    "fullUrl" : "http://example.com/fhir/Coverage/HealthInsuranceCardMarinaRubella",
    "resource" : {
      "resourceType" : "Coverage",
      "id" : "HealthInsuranceCardMarinaRubella",
      "meta" : {
        "profile" : ["http://fhir.ch/ig/ch-orf/StructureDefinition/ch-orf-coverage"]
      },
      "text" : {
        "status" : "generated",
        "div" : "<div xmlns=\"http://www.w3.org/1999/xhtml\"><a name=\"Coverage_HealthInsuranceCardMarinaRubella\"> </a><p><b>Generated Narrative: Coverage </b><a name=\"HealthInsuranceCardMarinaRubella\"> </a><a name=\"hcHealthInsuranceCardMarinaRubella\"> </a></p><div style=\"display: inline-block; background-color: #d9e0e7; padding: 6px; margin: 4px; border: 1px solid #8da1b4; border-radius: 5px; line-height: 60%\"><p style=\"margin-bottom: 0px\">ResourceCoverage &quot;HealthInsuranceCardMarinaRubella&quot; </p><p style=\"margin-bottom: 0px\">Profile: <a href=\"http://fhir.ch/ig/ch-orf/2.0.1/StructureDefinition-ch-orf-coverage.html\">CH ORF Coverage</a></p></div><p><b>identifier</b>: Insurance Card Number/A123456780</p><p><b>status</b>: active</p><p><b>type</b>: According to KVG <span style=\"background: LightGoldenRodYellow; margin: 4px; border: 1px solid khaki\"> (<a href=\"http://fhir.ch/ig/ch-orf/2.0.1/CodeSystem-ch-orf-cs-coveragetype.html\">Coverage Type</a>#KVG)</span></p><p><b>subscriber</b>: See on this page: Patient/MarinaRubella</p><p><b>beneficiary</b>: See on this page: Patient/MarinaRubella</p><p><b>period</b>: ?? --&gt; 2024-12-31</p><p><b>payor</b>: <span><code>http://ehic.com/insurer</code>/123456789</span></p></div>"
      },
      "identifier" : [{
        "type" : {
          "coding" : [{
            "system" : "http://fhir.ch/ig/ch-orf/CodeSystem/ch-orf-cs-coverageidentifiertype",
            "code" : "VeKa"
          }]
        },
        "system" : "http://ehic.com/insurer/123456789/member",
        "value" : "A123456780"
      }],
      "status" : "active",
      "type" : {
        "coding" : [{
          "system" : "http://fhir.ch/ig/ch-orf/CodeSystem/ch-orf-cs-coveragetype",
          "code" : "KVG",
          "display" : "According to KVG"
        }]
      },
      "subscriber" : {
        "reference" : "Patient/MarinaRubella"
      },
      "beneficiary" : {
        "reference" : "Patient/MarinaRubella"
      },
      "period" : {
        "end" : "2024-12-31"
      },
      "payor" : [{
        "identifier" : {
          "system" : "http://ehic.com/insurer",
          "value" : "123456789"
        }
      }]
    }
  },
  {
    "fullUrl" : "http://example.com/fhir/Specimen/Cervix-swab",
    "resource" : {
      "resourceType" : "Specimen",
      "id" : "Cervix-swab",
      "text" : {
        "status" : "generated",
        "div" : "<div xmlns=\"http://www.w3.org/1999/xhtml\"><a name=\"Specimen_Cervix-swab\"> </a><p><b>Generated Narrative: Specimen </b><a name=\"Cervix-swab\"> </a><a name=\"hcCervix-swab\"> </a></p><div style=\"display: inline-block; background-color: #d9e0e7; padding: 6px; margin: 4px; border: 1px solid #8da1b4; border-radius: 5px; line-height: 60%\"><p style=\"margin-bottom: 0px\">ResourceSpecimen &quot;Cervix-swab&quot; </p></div><p><b>identifier</b>: 48736-12345-12345</p><p><b>accessionIdentifier</b>: 4e88a-12345-aa222</p><p><b>status</b>: available</p><p><b>type</b>: Combined specimen of cytologic material from endocervix, ectocervix, and vaginal fornix (specimen) <span style=\"background: LightGoldenRodYellow; margin: 4px; border: 1px solid khaki\"> (<a href=\"https://browser.ihtsdotools.org/\">SNOMED CT</a>#430387006)</span></p><p><b>subject</b>: See on this page: Patient/MarinaRubella</p><p><b>request</b>: See on this page: ServiceRequest/3-gyn-service-request</p><h3>Collections</h3><table class=\"grid\"><tr><td style=\"display: none\">-</td><td><b>Collector</b></td><td><b>Collected[x]</b></td></tr><tr><td style=\"display: none\">*</td><td>See on this page: Practitioner/PeterPap</td><td>2015-08-16 06:40:17+0000</td></tr></table><h3>Containers</h3><table class=\"grid\"><tr><td style=\"display: none\">-</td><td><b>Type</b></td></tr><tr><td style=\"display: none\">*</td><td>General specimen container (physical object) <span style=\"background: LightGoldenRodYellow; margin: 4px; border: 1px solid khaki\"> (<a href=\"https://browser.ihtsdotools.org/\">SNOMED CT</a>#706053007)</span></td></tr></table></div>"
      },
      "identifier" : [{
        "value" : "48736-12345-12345"
      }],
      "accessionIdentifier" : {
        "value" : "4e88a-12345-aa222"
      },
      "status" : "available",
      "type" : {
        "coding" : [{
          "system" : "http://snomed.info/sct",
          "code" : "430387006",
          "display" : "Combined specimen of cytologic material from endocervix, ectocervix, and vaginal fornix (specimen)"
        }]
      },
      "subject" : {
        "reference" : "Patient/MarinaRubella"
      },
      "request" : [{
        "reference" : "ServiceRequest/3-gyn-service-request"
      }],
      "collection" : {
        "collector" : {
          "reference" : "Practitioner/PeterPap"
        },
        "collectedDateTime" : "2015-08-16T06:40:17Z"
      },
      "container" : [{
        "type" : {
          "coding" : [{
            "system" : "http://snomed.info/sct",
            "code" : "706053007",
            "display" : "General specimen container (physical object)"
          }]
        }
      }]
    }
  },
  {
    "fullUrl" : "http://example.com/fhir/Specimen/Blood-gyn",
    "resource" : {
      "resourceType" : "Specimen",
      "id" : "Blood-gyn",
      "text" : {
        "status" : "generated",
        "div" : "<div xmlns=\"http://www.w3.org/1999/xhtml\"><a name=\"Specimen_Blood-gyn\"> </a><p><b>Generated Narrative: Specimen </b><a name=\"Blood-gyn\"> </a><a name=\"hcBlood-gyn\"> </a></p><div style=\"display: inline-block; background-color: #d9e0e7; padding: 6px; margin: 4px; border: 1px solid #8da1b4; border-radius: 5px; line-height: 60%\"><p style=\"margin-bottom: 0px\">ResourceSpecimen &quot;Blood-gyn&quot; </p></div><p><b>status</b>: available</p><p><b>type</b>: Blood sample <span style=\"background: LightGoldenRodYellow; margin: 4px; border: 1px solid khaki\"> (<a href=\"https://browser.ihtsdotools.org/\">SNOMED CT</a>#119297000)</span></p><p><b>subject</b>: See on this page: Patient/MarinaRubella</p><p><b>request</b>: See on this page: ServiceRequest/3-gyn-service-request</p><h3>Collections</h3><table class=\"grid\"><tr><td style=\"display: none\">-</td><td><b>Collector</b></td><td><b>Collected[x]</b></td><td><b>BodySite</b></td></tr><tr><td style=\"display: none\">*</td><td>See on this page: Practitioner/PeterPap</td><td>2015-08-16 06:40:17+0000</td><td>Structure of superficial vein of left upper limb (body structure) <span style=\"background: LightGoldenRodYellow; margin: 4px; border: 1px solid khaki\"> (<a href=\"https://browser.ihtsdotools.org/\">SNOMED CT</a>#721029009)</span></td></tr></table><h3>Containers</h3><table class=\"grid\"><tr><td style=\"display: none\">-</td><td><b>Type</b></td></tr><tr><td style=\"display: none\">*</td><td>General specimen container (physical object) <span style=\"background: LightGoldenRodYellow; margin: 4px; border: 1px solid khaki\"> (<a href=\"https://browser.ihtsdotools.org/\">SNOMED CT</a>#706053007)</span></td></tr></table><p><b>note</b>: Specimen is grossly lipemic</p></div>"
      },
      "status" : "available",
      "type" : {
        "coding" : [{
          "system" : "http://snomed.info/sct",
          "code" : "119297000",
          "display" : "Blood sample"
        }]
      },
      "subject" : {
        "reference" : "Patient/MarinaRubella"
      },
      "request" : [{
        "reference" : "ServiceRequest/3-gyn-service-request"
      }],
      "collection" : {
        "collector" : {
          "reference" : "Practitioner/PeterPap"
        },
        "collectedDateTime" : "2015-08-16T06:40:17Z",
        "bodySite" : {
          "coding" : [{
            "system" : "http://snomed.info/sct",
            "code" : "721029009",
            "display" : "Structure of superficial vein of left upper limb (body structure)"
          }]
        }
      },
      "container" : [{
        "type" : {
          "coding" : [{
            "system" : "http://snomed.info/sct",
            "code" : "706053007",
            "display" : "General specimen container (physical object)"
          }]
        }
      }],
      "note" : [{
        "text" : "Specimen is grossly lipemic"
      }]
    }
  },
  {
    "fullUrl" : "http://example.com/fhir/Specimen/Serum-gyn",
    "resource" : {
      "resourceType" : "Specimen",
      "id" : "Serum-gyn",
      "text" : {
        "status" : "generated",
        "div" : "<div xmlns=\"http://www.w3.org/1999/xhtml\"><a name=\"Specimen_Serum-gyn\"> </a><p><b>Generated Narrative: Specimen </b><a name=\"Serum-gyn\"> </a><a name=\"hcSerum-gyn\"> </a></p><div style=\"display: inline-block; background-color: #d9e0e7; padding: 6px; margin: 4px; border: 1px solid #8da1b4; border-radius: 5px; line-height: 60%\"><p style=\"margin-bottom: 0px\">ResourceSpecimen &quot;Serum-gyn&quot; </p></div><p><b>identifier</b>: 48736-12345-75465</p><p><b>accessionIdentifier</b>: 4e88a-12345-dd888</p><p><b>status</b>: available</p><p><b>type</b>: Serum specimen (specimen) <span style=\"background: LightGoldenRodYellow; margin: 4px; border: 1px solid khaki\"> (<a href=\"https://browser.ihtsdotools.org/\">SNOMED CT</a>#119364003)</span></p><p><b>subject</b>: See on this page: Patient/MarinaRubella</p><p><b>request</b>: See on this page: ServiceRequest/3-gyn-service-request</p><h3>Collections</h3><table class=\"grid\"><tr><td style=\"display: none\">-</td><td><b>Collector</b></td><td><b>Collected[x]</b></td><td><b>BodySite</b></td><td><b>FastingStatus[x]</b></td></tr><tr><td style=\"display: none\">*</td><td>See on this page: Practitioner/PeterPap</td><td>2015-08-16 06:40:17+0000</td><td>Structure of median cubital vein (body structure) <span style=\"background: LightGoldenRodYellow; margin: 4px; border: 1px solid khaki\"> (<a href=\"https://browser.ihtsdotools.org/\">SNOMED CT</a>#49852007)</span></td><td>Patient was fasting prior to the procedure. <span style=\"background: LightGoldenRodYellow; margin: 4px; border: 1px solid khaki\"> (<a href=\"http://terminology.hl7.org/5.1.0/CodeSystem-v2-0916.html\">relevantClincialInformation</a>#F)</span></td></tr></table><h3>Containers</h3><table class=\"grid\"><tr><td style=\"display: none\">-</td><td><b>Type</b></td></tr><tr><td style=\"display: none\">*</td><td>General specimen container (physical object) <span style=\"background: LightGoldenRodYellow; margin: 4px; border: 1px solid khaki\"> (<a href=\"https://browser.ihtsdotools.org/\">SNOMED CT</a>#706053007)</span></td></tr></table></div>"
      },
      "identifier" : [{
        "value" : "48736-12345-75465"
      }],
      "accessionIdentifier" : {
        "value" : "4e88a-12345-dd888"
      },
      "status" : "available",
      "type" : {
        "coding" : [{
          "system" : "http://snomed.info/sct",
          "code" : "119364003",
          "display" : "Serum specimen (specimen)"
        }]
      },
      "subject" : {
        "reference" : "Patient/MarinaRubella"
      },
      "request" : [{
        "reference" : "ServiceRequest/3-gyn-service-request"
      }],
      "collection" : {
        "collector" : {
          "reference" : "Practitioner/PeterPap"
        },
        "collectedDateTime" : "2015-08-16T06:40:17Z",
        "bodySite" : {
          "coding" : [{
            "system" : "http://snomed.info/sct",
            "code" : "49852007",
            "display" : "Structure of median cubital vein (body structure)"
          }]
        },
        "fastingStatusCodeableConcept" : {
          "coding" : [{
            "system" : "http://terminology.hl7.org/CodeSystem/v2-0916",
            "code" : "F",
            "display" : "Patient was fasting prior to the procedure."
          }]
        }
      },
      "container" : [{
        "type" : {
          "coding" : [{
            "system" : "http://snomed.info/sct",
            "code" : "706053007",
            "display" : "General specimen container (physical object)"
          }]
        }
      }]
    }
  },
  {
    "fullUrl" : "http://example.com/fhir/Specimen/Urine-gyn",
    "resource" : {
      "resourceType" : "Specimen",
      "id" : "Urine-gyn",
      "text" : {
        "status" : "generated",
        "div" : "<div xmlns=\"http://www.w3.org/1999/xhtml\"><a name=\"Specimen_Urine-gyn\"> </a><p><b>Generated Narrative: Specimen </b><a name=\"Urine-gyn\"> </a><a name=\"hcUrine-gyn\"> </a></p><div style=\"display: inline-block; background-color: #d9e0e7; padding: 6px; margin: 4px; border: 1px solid #8da1b4; border-radius: 5px; line-height: 60%\"><p style=\"margin-bottom: 0px\">ResourceSpecimen &quot;Urine-gyn&quot; </p></div><p><b>identifier</b>: 11111-15394-75465</p><p><b>accessionIdentifier</b>: 22222-bc987-dd888</p><p><b>status</b>: available</p><p><b>type</b>: Urine sample <span style=\"background: LightGoldenRodYellow; margin: 4px; border: 1px solid khaki\"> (<a href=\"https://browser.ihtsdotools.org/\">SNOMED CT</a>#122575003)</span></p><p><b>subject</b>: See on this page: Patient/MarinaRubella</p><p><b>receivedTime</b>: 2023-12-01 16:40:17+0000</p><p><b>request</b>: See on this page: ServiceRequest/3-gyn-service-request</p><h3>Collections</h3><table class=\"grid\"><tr><td style=\"display: none\">-</td><td><b>Collector</b></td><td><b>Collected[x]</b></td></tr><tr><td style=\"display: none\">*</td><td>See on this page: Practitioner/PeterPap</td><td>2023-12-01 06:40:17+0000</td></tr></table><h3>Containers</h3><table class=\"grid\"><tr><td style=\"display: none\">-</td><td><b>Identifier</b></td><td><b>Description</b></td><td><b>Type</b></td></tr><tr><td style=\"display: none\">*</td><td>4e88a-bc987-dd888-12345-urin</td><td>Uriswab™ : Urine Collection System</td><td>Urine specimen container (physical object) <span style=\"background: LightGoldenRodYellow; margin: 4px; border: 1px solid khaki\"> (<a href=\"https://browser.ihtsdotools.org/\">SNOMED CT</a>#706054001)</span></td></tr></table></div>"
      },
      "identifier" : [{
        "value" : "11111-15394-75465"
      }],
      "accessionIdentifier" : {
        "value" : "22222-bc987-dd888"
      },
      "status" : "available",
      "type" : {
        "coding" : [{
          "system" : "http://snomed.info/sct",
          "code" : "122575003",
          "display" : "Urine sample"
        }]
      },
      "subject" : {
        "reference" : "Patient/MarinaRubella"
      },
      "receivedTime" : "2023-12-01T16:40:17Z",
      "request" : [{
        "reference" : "ServiceRequest/3-gyn-service-request"
      }],
      "collection" : {
        "collector" : {
          "reference" : "Practitioner/PeterPap"
        },
        "collectedDateTime" : "2023-12-01T06:40:17Z"
      },
      "container" : [{
        "identifier" : [{
          "value" : "4e88a-bc987-dd888-12345-urin"
        }],
        "description" : "Uriswab™ : Urine Collection System",
        "type" : {
          "coding" : [{
            "system" : "http://snomed.info/sct",
            "code" : "706054001",
            "display" : "Urine specimen container (physical object)"
          }]
        }
      }]
    }
  },
  {
    "fullUrl" : "http://example.com/fhir/ServiceRequest/3-gyn-service-request",
    "resource" : {
      "resourceType" : "ServiceRequest",
      "id" : "3-gyn-service-request",
      "meta" : {
        "profile" : ["http://fhir.ch/ig/ch-lab-order/StructureDefinition/ch-lab-order-SR"]
      },
      "text" : {
        "status" : "generated",
        "div" : "<div xmlns=\"http://www.w3.org/1999/xhtml\"><a name=\"ServiceRequest_3-gyn-service-request\"> </a><p><b>Generated Narrative: ServiceRequest </b><a name=\"3-gyn-service-request\"> </a><a name=\"hc3-gyn-service-request\"> </a></p><div style=\"display: inline-block; background-color: #d9e0e7; padding: 6px; margin: 4px; border: 1px solid #8da1b4; border-radius: 5px; line-height: 60%\"><p style=\"margin-bottom: 0px\">ResourceServiceRequest &quot;3-gyn-service-request&quot; </p><p style=\"margin-bottom: 0px\">Profile: <a href=\"StructureDefinition-ch-lab-order-SR.html\">CH LAB-Order-SR</a></p></div><p><b>identifier</b>: Placer Identifier/123</p><p><b>status</b>: active</p><p><b>intent</b>: original-order</p><p><b>priority</b>: routine</p><p><b>code</b>: Pap smear tests - FPAR 2.0 set <span style=\"background: LightGoldenRodYellow; margin: 4px; border: 1px solid khaki\"> (<a href=\"https://loinc.org/\">LOINC</a>#86662-4; <a href=\"https://loinc.org/\">LOINC</a>#14503-7 &quot;Human papilloma virus 16+18 Ag [Presence] in Cervix&quot;; <a href=\"https://loinc.org/\">LOINC</a>#50556-0 &quot;Urinalysis dipstick panel - Urine by Automated test strip&quot;; <a href=\"https://loinc.org/\">LOINC</a>#24364-2 &quot;Obstetric 1996 Pnl Ser+Bld&quot;)</span></p><p><b>subject</b>: See on this page: Patient/MarinaRubella</p><p><b>requester</b>: See on this page: PractitionerRole/PeterPapGruppenpraxis</p><p><b>reasonCode</b>: Routine gynecologic examination (procedure) <span style=\"background: LightGoldenRodYellow; margin: 4px; border: 1px solid khaki\"> (<a href=\"https://browser.ihtsdotools.org/\">SNOMED CT</a>#702601001)</span></p><p><b>insurance</b>: See on this page: Coverage/HealthInsuranceCardMarinaRubella</p><p><b>specimen</b>: </p><ul><li>See on this page: Specimen/Cervix-swab</li><li>See on this page: Specimen/Blood-gyn</li><li>See on this page: Specimen/Serum-gyn</li><li>See on this page: Specimen/Urine-gyn</li></ul></div>"
      },
      "identifier" : [{
        "type" : {
          "coding" : [{
            "system" : "http://terminology.hl7.org/CodeSystem/v2-0203",
            "code" : "PLAC",
            "display" : "Placer Identifier"
          }]
        },
        "system" : "urn:oid:2.16.756.5.30",
        "value" : "123"
      }],
      "status" : "active",
      "intent" : "original-order",
      "priority" : "routine",
      "code" : {
        "coding" : [{
          "system" : "http://loinc.org",
          "code" : "86662-4",
          "display" : "Pap smear tests - FPAR 2.0 set"
        },
        {
          "system" : "http://loinc.org",
          "code" : "14503-7",
          "display" : "Human papilloma virus 16+18 Ag [Presence] in Cervix"
        },
        {
          "system" : "http://loinc.org",
          "code" : "50556-0",
          "display" : "Urinalysis dipstick panel - Urine by Automated test strip"
        },
        {
          "system" : "http://loinc.org",
          "code" : "24364-2",
          "display" : "Obstetric 1996 Pnl Ser+Bld"
        }]
      },
      "subject" : {
        "reference" : "Patient/MarinaRubella"
      },
      "requester" : {
        "reference" : "PractitionerRole/PeterPapGruppenpraxis"
      },
      "reasonCode" : [{
        "coding" : [{
          "system" : "http://snomed.info/sct",
          "code" : "702601001"
        }],
        "text" : "Routine gynecologic examination (procedure)"
      }],
      "insurance" : [{
        "reference" : "Coverage/HealthInsuranceCardMarinaRubella"
      }],
      "specimen" : [{
        "reference" : "Specimen/Cervix-swab"
      },
      {
        "reference" : "Specimen/Blood-gyn"
      },
      {
        "reference" : "Specimen/Serum-gyn"
      },
      {
        "reference" : "Specimen/Urine-gyn"
      }]
    }
  }]
}