{
  "resourceType": "Bundle",
  "id": "2-ImmunizationCertificate",
  "meta": {
    "lastUpdated": "2021-02-11T23:47:50.626+01:00",
    "profile": [
      "http://fhir.ch/ig/ch-vacd/StructureDefinition/ch-vacd-document-immunization-certificate"
    ]
  },
  "identifier": {
    "system": "urn:ietf:rfc:3986",
    "value": "urn:uuid:ee4a07fc-dfe1-4c84-adcd-e66ea1c3ecf4"
  },
  "type": "document",
  "timestamp": "2021-02-11T23:47:50.608+01:00",
  "entry": [
    {
      "fullUrl": "http://test.fhir.ch/r4/Composition/4d8ff91f-327c-4673-87ea-f0512d02015e",
      "resource": {
        "resourceType": "Composition",
        "id": "4d8ff91f-327c-4673-87ea-f0512d02015e",
        "meta": {
          "profile": [
            "http://fhir.ch/ig/ch-vacd/StructureDefinition/ch-vacd-composition-immunization-certificate"
          ]
        },
        "language": "en-US",
        "text": {
          "status": "generated",
          "div": "<div xmlns=\"http://www.w3.org/1999/xhtml\" xml:lang=\"en-US\" lang=\"en-US\">This is the composition for all immunizations.</div>"
        },
        "extension": [
          {
            "url": "http://fhir.ch/ig/ch-core/StructureDefinition/ch-ext-epr-setid",
            "valueIdentifier": {
              "system": "urn:ietf:rfc:3986",
              "value": "urn:uuid:ee4a07fc-dfe1-4c84-adcd-e66ea1c3ecf4"
            }
          },
          {
            "id": "versionNumber",
            "url": "http://fhir.ch/ig/ch-core/StructureDefinition/ch-ext-epr-versionnumber",
            "valueUnsignedInt": 1
          }
        ],
        "identifier": {
          "system": "urn:oid:2.16.756.5.30.1.1.1.1",
          "value": "1b5777e4-11a0-46de-87f1-0bd860a0ff75"
        },
        "status": "final",
        "type": {
          "coding": [
            {
              "system": "http://snomed.info/sct",
              "code": "41000179103",
              "display": "Immunization record"
            }
          ]
        },
        "subject": {
          "reference": "Patient/patient1"
        },
        "date": "2021-02-11T23:47:50+01:00",
        "author": [
          {
            "reference": "Practitioner/practitioner1"
          }
        ],
        "title": "Verabreichte Impfungen",
        "confidentiality": "N",
        "_confidentiality": {
          "extension": [
            {
              "url": "http://fhir.ch/ig/ch-core/StructureDefinition/ch-ext-epr-confidentialitycode",
              "valueCodeableConcept": {
                "coding": [
                  {
                    "system": "http://snomed.info/sct",
                    "code": "17621005",
                    "display": "Normal (qualifier value)"
                  }
                ]
              }
            }
          ]
        },
        "custodian": {
          "reference": "Organization/organization2"
        },
        "section": [
          {
            "id": "administration",
            "title": "Liste der verabreichten Impfungen",
            "code": {
              "coding": [
                {
                  "system": "http://loinc.org",
                  "code": "11369-6",
                  "display": "Hx of Immunization"
                }
              ]
            },
            "text": {
              "status": "generated",
              "div": "<div xmlns=\"http://www.w3.org/1999/xhtml\" xml:lang=\"en-US\" lang=\"en-US\">This is the section containing all immunization entries.</div>"
            },
            "entry": [
              {
                "reference": "Immunization/immunization1"
              },
              {
                "reference": "Immunization/immunization2"
              },
              {
                "reference": "Immunization/immunization3"
              },
              {
                "reference": "Immunization/immunization4"
              }
            ]
          },
          {
            "id": "annotation",
            "title": "Kommentar",
            "text": {
              "status": "generated",
              "div": "<div xmlns=\"http://www.w3.org/1999/xhtml\" xml:lang=\"en-US\">This is the section containing all immunization entries.</div>"
            }
          }
        ]
      }
    },
    {
      "fullUrl": "http://test.fhir.ch/r4/Patient/patient1",
      "resource": {
        "resourceType": "Patient",
        "id": "patient1",
        "meta": {
          "profile": [
            "http://fhir.ch/ig/ch-core/StructureDefinition/ch-core-patient"
          ]
        },
        "text": {
          "status": "generated",
          "div": "<div xmlns=\"http://www.w3.org/1999/xhtml\">\n                  <div class=\"hapiHeaderText\">Monika \n                     <b>WEGMUELLER </b>\n                  </div>\n                  <table class=\"hapiPropertyTable\">\n                     <tbody>\n                        <tr>\n                           <td>Identifier</td>\n                           <td>123.71.332.115</td>\n                        </tr>\n                        <tr>\n                           <td>Address</td>\n                           <td>\n                              <span>Leidensweg 10 </span>\n                              <br/>\n                              <span>Specimendorf </span>\n                              <span>CH </span>\n                           </td>\n                        </tr>\n                        <tr>\n                           <td>Date of birth</td>\n                           <td>\n                              <span>10 March 1967</span>\n                           </td>\n                        </tr>\n                     </tbody>\n                  </table>\n               </div>"
        },
        "identifier": [
          {
            "system": "urn:oid:2.16.756.5.31",
            "value": "123.71.332.115"
          },
          {
            "system": "urn:oid:2.16.756.5.30.1.123.100.1.1.1",
            "value": "8077560000000000000000"
          }
        ],
        "name": [
          {
            "family": "Wegmueller",
            "given": [
              "Monika"
            ]
          }
        ],
        "telecom": [
          {
            "system": "phone",
            "value": "tel:+41.32.685.12.34",
            "use": "home"
          }
        ],
        "gender": "female",
        "birthDate": "1967-03-10",
        "address": [
          {
            "type": "both",
            "line": [
              "Leidensweg 10"
            ],
            "city": "Specimendorf",
            "postalCode": "9876",
            "country": "CH"
          }
        ]
      }
    },
    {
      "fullUrl": "http://test.fhir.ch/r4/Practitioner/practitioner1",
      "resource": {
        "resourceType": "Practitioner",
        "id": "practitioner1",
        "meta": {
          "profile": [
            "http://fhir.ch/ig/ch-core/StructureDefinition/ch-core-practitioner-epr"
          ]
        },
        "text": {
          "status": "generated",
          "div": "<div xmlns=\"http://www.w3.org/1999/xhtml\"><p><b>Generated Narrative</b></p><p><b>identifier</b>: id: 2000000000030</p><p><b>active</b>: true</p><p><b>name</b>: Allzeit Bereit </p><p><b>telecom</b>: ph: tel:+41.32.234.55.66(WORK), fax: fax:+41.32.234.55.67(WORK), <a href=\"mailto:mailto:bereit@gruppenpraxis.ch\">mailto:bereit@gruppenpraxis.ch</a>, <a href=\"http://www.gruppenpraxis.ch\">http://www.gruppenpraxis.ch</a></p><p><b>address</b>: Doktorgasse 2 Musterhausen 8888 CH </p></div>"
        },
        "identifier": [
          {
            "system": "urn:oid:2.51.1.3",
            "value": "2000000000030"
          }
        ],
        "active": true,
        "name": [
          {
            "family": "Bereit",
            "given": [
              "Allzeit"
            ],
            "prefix": [
              "Dr. med."
            ]
          }
        ],
        "telecom": [
          {
            "system": "phone",
            "value": "tel:+41.32.234.55.66",
            "use": "work"
          },
          {
            "system": "fax",
            "value": "fax:+41.32.234.55.67",
            "use": "work"
          },
          {
            "system": "email",
            "value": "mailto:bereit@gruppenpraxis.ch",
            "use": "work"
          },
          {
            "system": "url",
            "value": "http://www.gruppenpraxis.ch",
            "use": "work"
          }
        ],
        "address": [
          {
            "type": "physical",
            "line": [
              "Doktorgasse 2"
            ],
            "city": "Musterhausen",
            "postalCode": "8888",
            "country": "CH"
          }
        ]
      }
    },
    {
      "fullUrl": "http://test.fhir.ch/r4/Organization/organization2",
      "resource": {
        "resourceType": "Organization",
        "id": "organization2",
        "text": {
          "status": "generated",
          "div": "<div xmlns=\"http://www.w3.org/1999/xhtml\"><p><b>Generated Narrative</b></p><p><b>identifier</b>: id: 2010000000031</p><p><b>name</b>: Stiftung meineimpfungen.ch</p><p><b>address</b>: Mattenstrasse 9 Gümligen BE 3073 CH </p></div>"
        },
        "identifier": [
          {
            "system": "urn:oid:2.51.1.3",
            "value": "2010000000031"
          }
        ],
        "name": "Stiftung meineimpfungen.ch",
        "address": [
          {
            "line": [
              "Mattenstrasse 9"
            ],
            "city": "Gümligen",
            "state": "BE",
            "postalCode": "3073",
            "country": "CH"
          }
        ]
      }
    },
    {
      "fullUrl": "http://test.fhir.ch/r4/PractitionerRole/practitionerRole1",
      "resource": {
        "resourceType": "PractitionerRole",
        "id": "practitionerRole1",
        "text": {
          "status": "generated",
          "div": "<div xmlns=\"http://www.w3.org/1999/xhtml\"><p><b>Generated Narrative</b></p><p><b>active</b>: true</p><p><b>practitioner</b>: <a href=\"#Practitioner_practitioner1\">See above (Practitioner/practitioner1)</a></p><p><b>organization</b>: <a href=\"#Organization_organization2\">See above (Organization/organization2)</a></p></div>"
        },
        "active": true,
        "practitioner": {
          "reference": "Practitioner/practitioner1"
        },
        "organization": {
          "reference": "Organization/organization2"
        }
      }
    },
    {
      "fullUrl": "http://test.fhir.ch/r4/Practitioner/practitioner2",
      "resource": {
        "resourceType": "Practitioner",
        "id": "practitioner2",
        "meta": {
          "profile": [
            "http://fhir.ch/ig/ch-core/StructureDefinition/ch-core-practitioner-epr"
          ]
        },
        "text": {
          "status": "generated",
          "div": "<div xmlns=\"http://www.w3.org/1999/xhtml\"><p><b>Generated Narrative</b></p><p><b>identifier</b>: id: 2000000000031</p><p><b>active</b>: true</p><p><b>name</b>: Max Muster </p></div>"
        },
        "identifier": [
          {
            "system": "urn:oid:2.51.1.3",
            "value": "2000000000031"
          }
        ],
        "active": true,
        "name": [
          {
            "family": "Muster",
            "given": [
              "Max"
            ]
          }
        ]
      }
    },
    {
      "fullUrl": "http://test.fhir.ch/r4/Immunization/immunization1",
      "resource": {
        "resourceType": "Immunization",
        "id": "immunization1",
        "meta": {
          "profile": [
            "http://fhir.ch/ig/ch-vacd/StructureDefinition/ch-vacd-section-immunization"
          ]
        },
        "text": {
          "status": "generated",
          "div": "<div xmlns=\"http://www.w3.org/1999/xhtml\"><p><b>Generated Narrative</b></p><p><b>identifier</b>: id: 12345</p><p><b>status</b>: completed</p><p><b>vaccineCode</b>: <span title=\"Codes: {http://swissmedic.ch/ns/authorizationnumber/vs 637}\">Boostrix</span></p><p><b>patient</b>: <a href=\"#Patient_patient1\">See above (Patient/patient1)</a></p><p><b>occurrence</b>: Sep 15, 2013, 11:47:50 PM</p><p><b>recorded</b>: Sep 15, 2013, 11:47:50 PM</p><p><b>lotNumber</b>: 12345</p><h3>Performers</h3><table class=\"grid\"><tr><td>-</td><td><b>Actor</b></td></tr><tr><td>*</td><td><a href=\"#Practitioner_practitioner2\">See above (Practitioner/practitioner2)</a></td></tr></table><p><b>reasonCode</b>: <span title=\"Codes: {http://terminology.hl7.org/CodeSystem/v3-ActCode IMMUNIZ}\">Immunization</span></p><h3>ProtocolApplieds</h3><table class=\"grid\"><tr><td>-</td><td><b>TargetDisease</b></td><td><b>DoseNumber[x]</b></td></tr><tr><td>*</td><td><span title=\"Codes: {http://snomed.info/sct 76668005}\">Diphtheria immunization</span>, <span title=\"Codes: {http://snomed.info/sct 127786006}\">Tetanus vaccination</span>, <span title=\"Codes: {http://snomed.info/sct 39343008}\">Pertussis vaccination</span></td><td>1</td></tr></table></div>"
        },
        "identifier": [
          {
            "system": "urn:oid:2.16.756.5.30.1.147.1.3.1",
            "value": "12345"
          }
        ],
        "status": "completed",
        "vaccineCode": {
          "coding": [
            {
              "system": "http://swissmedic.ch/ns/authorizationnumber/vs",
              "code": "637",
              "display": "Boostrix"
            }
          ]
        },
        "patient": {
          "reference": "Patient/patient1"
        },
        "occurrenceDateTime": "2013-09-15T23:47:50+02:00",
        "recorded": "2013-09-15T23:47:50+02:00",
        "lotNumber": "12345",
        "performer": [
          {
            "actor": {
              "reference": "Practitioner/practitioner2"
            }
          }
        ],
        "reasonCode": [
          {
            "coding": [
              {
                "system": "http://terminology.hl7.org/CodeSystem/v3-ActCode",
                "code": "IMMUNIZ",
                "display": "Immunization"
              }
            ]
          }
        ],
        "protocolApplied": [
          {
            "targetDisease": [
              {
                "coding": [
                  {
                    "system": "http://snomed.info/sct",
                    "code": "76668005",
                    "display": "Diphtheria immunization"
                  }
                ]
              },
              {
                "coding": [
                  {
                    "system": "http://snomed.info/sct",
                    "code": "127786006",
                    "display": "Tetanus vaccination"
                  }
                ]
              },
              {
                "coding": [
                  {
                    "system": "http://snomed.info/sct",
                    "code": "39343008",
                    "display": "Pertussis vaccination"
                  }
                ]
              }
            ],
            "doseNumberPositiveInt": 1
          }
        ]
      }
    },
    {
      "fullUrl": "http://test.fhir.ch/r4/Immunization/immunization2",
      "resource": {
        "resourceType": "Immunization",
        "id": "immunization2",
        "meta": {
          "profile": [
            "http://fhir.ch/ig/ch-vacd/StructureDefinition/ch-vacd-section-immunization"
          ]
        },
        "text": {
          "status": "generated",
          "div": "<div xmlns=\"http://www.w3.org/1999/xhtml\"><p><b>Generated Narrative</b></p><p><b>identifier</b>: id: 23456</p><p><b>status</b>: completed</p><p><b>vaccineCode</b>: <span title=\"Codes: {http://swissmedic.ch/ns/authorizationnumber/vs 637}\">Boostrix</span></p><p><b>patient</b>: <a href=\"#Patient_patient1\">See above (Patient/patient1)</a></p><p><b>occurrence</b>: Aug 12, 2014, 11:47:50 PM</p><p><b>recorded</b>: Aug 12, 2014, 11:47:50 PM</p><p><b>lotNumber</b>: 12345</p><h3>Performers</h3><table class=\"grid\"><tr><td>-</td><td><b>Actor</b></td></tr><tr><td>*</td><td><a href=\"#Practitioner_practitioner2\">See above (Practitioner/practitioner2)</a></td></tr></table><p><b>reasonCode</b>: <span title=\"Codes: {http://terminology.hl7.org/CodeSystem/v3-ActCode IMMUNIZ}\">Immunization</span></p><h3>ProtocolApplieds</h3><table class=\"grid\"><tr><td>-</td><td><b>TargetDisease</b></td><td><b>DoseNumber[x]</b></td></tr><tr><td>*</td><td><span title=\"Codes: {http://snomed.info/sct 76668005}\">Diphtheria immunization</span>, <span title=\"Codes: {http://snomed.info/sct 127786006}\">Tetanus vaccination</span>, <span title=\"Codes: {http://snomed.info/sct 39343008}\">Pertussis vaccination</span></td><td>1</td></tr></table></div>"
        },
        "identifier": [
          {
            "system": "urn:oid:2.16.756.5.30.1.147.1.3.1",
            "value": "23456"
          }
        ],
        "status": "completed",
        "vaccineCode": {
          "coding": [
            {
              "system": "http://swissmedic.ch/ns/authorizationnumber/vs",
              "code": "637",
              "display": "Boostrix"
            }
          ]
        },
        "patient": {
          "reference": "Patient/patient1"
        },
        "occurrenceDateTime": "2014-08-12T23:47:50+02:00",
        "recorded": "2014-08-12T23:47:50+02:00",
        "lotNumber": "12345",
        "performer": [
          {
            "actor": {
              "reference": "Practitioner/practitioner2"
            }
          }
        ],
        "reasonCode": [
          {
            "coding": [
              {
                "system": "http://terminology.hl7.org/CodeSystem/v3-ActCode",
                "code": "IMMUNIZ",
                "display": "Immunization"
              }
            ]
          }
        ],
        "protocolApplied": [
          {
            "targetDisease": [
              {
                "coding": [
                  {
                    "system": "http://snomed.info/sct",
                    "code": "76668005",
                    "display": "Diphtheria immunization"
                  }
                ]
              },
              {
                "coding": [
                  {
                    "system": "http://snomed.info/sct",
                    "code": "127786006",
                    "display": "Tetanus vaccination"
                  }
                ]
              },
              {
                "coding": [
                  {
                    "system": "http://snomed.info/sct",
                    "code": "39343008",
                    "display": "Pertussis vaccination"
                  }
                ]
              }
            ],
            "doseNumberPositiveInt": 1
          }
        ]
      }
    },
    {
      "fullUrl": "http://test.fhir.ch/r4/Immunization/immunization3",
      "resource": {
        "resourceType": "Immunization",
        "id": "immunization3",
        "meta": {
          "profile": [
            "http://fhir.ch/ig/ch-vacd/StructureDefinition/ch-vacd-section-immunization"
          ]
        },
        "text": {
          "status": "generated",
          "div": "<div xmlns=\"http://www.w3.org/1999/xhtml\"><p><b>Generated Narrative</b></p><p><b>identifier</b>: id: 34567</p><p><b>status</b>: completed</p><p><b>vaccineCode</b>: <span title=\"Codes: {http://swissmedic.ch/ns/authorizationnumber/vs 637}\">Boostrix</span></p><p><b>patient</b>: <a href=\"#Patient_patient1\">See above (Patient/patient1)</a></p><p><b>occurrence</b>: Nov 1, 2015, 11:47:50 PM</p><p><b>recorded</b>: Nov 1, 2015, 11:47:50 PM</p><p><b>lotNumber</b>: 12345</p><h3>Performers</h3><table class=\"grid\"><tr><td>-</td><td><b>Actor</b></td></tr><tr><td>*</td><td><a href=\"#Practitioner_practitioner2\">See above (Practitioner/practitioner2)</a></td></tr></table><p><b>reasonCode</b>: <span title=\"Codes: {http://terminology.hl7.org/CodeSystem/v3-ActCode IMMUNIZ}\">Immunization</span></p><h3>ProtocolApplieds</h3><table class=\"grid\"><tr><td>-</td><td><b>TargetDisease</b></td><td><b>DoseNumber[x]</b></td></tr><tr><td>*</td><td><span title=\"Codes: {http://snomed.info/sct 76668005}\">Diphtheria immunization</span>, <span title=\"Codes: {http://snomed.info/sct 127786006}\">Tetanus vaccination</span>, <span title=\"Codes: {http://snomed.info/sct 39343008}\">Pertussis vaccination</span></td><td>1</td></tr></table></div>"
        },
        "identifier": [
          {
            "system": "urn:oid:2.16.756.5.30.1.147.1.3.1",
            "value": "34567"
          }
        ],
        "status": "completed",
        "vaccineCode": {
          "coding": [
            {
              "system": "http://swissmedic.ch/ns/authorizationnumber/vs",
              "code": "637",
              "display": "Boostrix"
            }
          ]
        },
        "patient": {
          "reference": "Patient/patient1"
        },
        "occurrenceDateTime": "2015-11-01T23:47:50+01:00",
        "recorded": "2015-11-01T23:47:50+01:00",
        "lotNumber": "12345",
        "performer": [
          {
            "actor": {
              "reference": "Practitioner/practitioner2"
            }
          }
        ],
        "reasonCode": [
          {
            "coding": [
              {
                "system": "http://terminology.hl7.org/CodeSystem/v3-ActCode",
                "code": "IMMUNIZ",
                "display": "Immunization"
              }
            ]
          }
        ],
        "protocolApplied": [
          {
            "targetDisease": [
              {
                "coding": [
                  {
                    "system": "http://snomed.info/sct",
                    "code": "76668005",
                    "display": "Diphtheria immunization"
                  }
                ]
              },
              {
                "coding": [
                  {
                    "system": "http://snomed.info/sct",
                    "code": "127786006",
                    "display": "Tetanus vaccination"
                  }
                ]
              },
              {
                "coding": [
                  {
                    "system": "http://snomed.info/sct",
                    "code": "39343008",
                    "display": "Pertussis vaccination"
                  }
                ]
              }
            ],
            "doseNumberPositiveInt": 1
          }
        ]
      }
    },
    {
      "fullUrl": "http://test.fhir.ch/r4/Immunization/immunization4",
      "resource": {
        "resourceType": "Immunization",
        "id": "immunization4",
        "meta": {
          "profile": [
            "http://fhir.ch/ig/ch-vacd/StructureDefinition/ch-vacd-section-immunization"
          ]
        },
        "text": {
          "status": "generated",
          "div": "<div xmlns=\"http://www.w3.org/1999/xhtml\"><p><b>Generated Narrative</b></p><p><b>identifier</b>: id: 45678</p><p><b>status</b>: completed</p><p><b>vaccineCode</b>: <span title=\"Codes: {http://swissmedic.ch/ns/authorizationnumber/vs 268}\">MMR-II</span></p><p><b>patient</b>: <a href=\"#Patient_patient1\">See above (Patient/patient1)</a></p><p><b>occurrence</b>: Mar 5, 2016, 11:47:50 PM</p><p><b>recorded</b>: Mar 5, 2016, 11:47:50 PM</p><p><b>lotNumber</b>: 12345</p><h3>Performers</h3><table class=\"grid\"><tr><td>-</td><td><b>Actor</b></td></tr><tr><td>*</td><td><a href=\"#Practitioner_practitioner1\">See above (Practitioner/practitioner1)</a></td></tr></table><p><b>reasonCode</b>: <span title=\"Codes: {http://terminology.hl7.org/CodeSystem/v3-ActCode IMMUNIZ}\">Immunization</span></p><h3>ProtocolApplieds</h3><table class=\"grid\"><tr><td>-</td><td><b>TargetDisease</b></td><td><b>DoseNumber[x]</b></td></tr><tr><td>*</td><td><span title=\"Codes: {http://snomed.info/sct 47435007}\">Measles vaccination</span>, <span title=\"Codes: {http://snomed.info/sct 50583002}\">Mumps vaccination</span>, <span title=\"Codes: {http://snomed.info/sct 82314000}\">Rubella vaccination</span></td><td>1</td></tr></table></div>"
        },
        "identifier": [
          {
            "system": "urn:oid:2.16.756.5.30.1.147.1.3.1",
            "value": "45678"
          }
        ],
        "status": "completed",
        "vaccineCode": {
          "coding": [
            {
              "system": "http://swissmedic.ch/ns/authorizationnumber/vs",
              "code": "268",
              "display": "MMR-II"
            }
          ]
        },
        "patient": {
          "reference": "Patient/patient1"
        },
        "occurrenceDateTime": "2016-03-05T23:47:50+01:00",
        "recorded": "2016-03-05T23:47:50+01:00",
        "lotNumber": "12345",
        "performer": [
          {
            "actor": {
              "reference": "Practitioner/practitioner1"
            }
          }
        ],
        "reasonCode": [
          {
            "coding": [
              {
                "system": "http://terminology.hl7.org/CodeSystem/v3-ActCode",
                "code": "IMMUNIZ",
                "display": "Immunization"
              }
            ]
          }
        ],
        "protocolApplied": [
          {
            "targetDisease": [
              {
                "coding": [
                  {
                    "system": "http://snomed.info/sct",
                    "code": "47435007",
                    "display": "Measles vaccination"
                  }
                ]
              },
              {
                "coding": [
                  {
                    "system": "http://snomed.info/sct",
                    "code": "50583002",
                    "display": "Mumps vaccination"
                  }
                ]
              },
              {
                "coding": [
                  {
                    "system": "http://snomed.info/sct",
                    "code": "82314000",
                    "display": "Rubella vaccination"
                  }
                ]
              }
            ],
            "doseNumberPositiveInt": 1
          }
        ]
      }
    }
  ]
}