<?xml version="1.0" encoding="UTF-8"?>

<Bundle xmlns="http://hl7.org/fhir">
  <id value="UC1-SwissIpsDocument2"/>
  <meta>
    <profile value="http://fhir.ch/ig/ch-ips/StructureDefinition/ch-ips-document-epr"/>
  </meta>
  <language value="de-CH"/>
  <identifier>
    <system value="urn:ietf:rfc:3986"/>
    <value value="urn:uuid:fe724e67-ac59-4933-b997-2770cc506f3b"/>
  </identifier>
  <type value="document"/>
  <timestamp value="2024-05-03T09:30:00+02:00"/>
  <entry>
    <fullUrl value="urn:uuid:5c3cddfe-bbe6-463f-b76c-3d45bc7998fb"/>
    <resource>
      <Composition>
        <id value="5c3cddfe-bbe6-463f-b76c-3d45bc7998fb"/>
        <meta>
          <profile value="http://fhir.ch/ig/ch-ips/StructureDefinition/ch-ips-composition"/>
        </meta>
        <language value="de-CH"/>
        <text>
          <status value="generated"/><div xmlns="http://www.w3.org/1999/xhtml" xml:lang="de-CH" lang="de-CH"><a name="Composition_5c3cddfe-bbe6-463f-b76c-3d45bc7998fb"> </a><p class="res-header-id"><b>Generated Narrative: Composition 5c3cddfe-bbe6-463f-b76c-3d45bc7998fb</b></p><a name="5c3cddfe-bbe6-463f-b76c-3d45bc7998fb"> </a><a name="hc5c3cddfe-bbe6-463f-b76c-3d45bc7998fb"> </a><div style="display: inline-block; background-color: #d9e0e7; padding: 6px; margin: 4px; border: 1px solid #8da1b4; border-radius: 5px; line-height: 60%"><p style="margin-bottom: 0px">Language: de-CH</p><p style="margin-bottom: 0px">Profile: <a href="StructureDefinition-ch-ips-composition.html">CH IPS Composition</a></p></div><p><b>identifier</b>: <a href="http://terminology.hl7.org/6.3.0/NamingSystem-uri.html" title="As defined by RFC 3986 (http://www.ietf.org/rfc/rfc3986.txt)(with many schemes defined in many RFCs). For OIDs and UUIDs, use the URN form (urn:oid:(note: lowercase) and urn:uuid:). See http://www.ietf.org/rfc/rfc3001.txt and http://www.ietf.org/rfc/rfc4122.txt 

This oid is used as an identifier II.root to indicate the the extension is an absolute URI (technically, an IRI). Typically, this is used for OIDs and GUIDs. Note that when this OID is used with OIDs and GUIDs, the II.extension should start with urn:oid or urn:uuid: 

Note that this OID is created to aid with interconversion between CDA and FHIR - FHIR uses urn:ietf:rfc:3986 as equivalent to this OID. URIs as identifiers appear more commonly in FHIR.

This OID may also be used in CD.codeSystem.">Uniform Resource Identifier (URI)</a>/urn:uuid:fe724e67-ac59-4933-b997-2770cc506f3b</p><p><b>status</b>: Final</p><p><b>type</b>: <span title="Codes:{http://loinc.org 60591-5}">Patient summary Document</span></p><p><b>date</b>: 2024-05-03 09:30:00+0200</p><p><b>author</b>: <a href="Bundle-UC1-SwissIpsDocument2.html#urn-uuid-869a4dd9-3a4a-4838-ad1e-42453d341147">Martina Meier @ Spital</a></p><p><b>title</b>: Patient Summary for IPS Switerland</p><p><b>confidentiality</b>: normal</p><h3>Attesters</h3><table class="grid"><tr><td style="display: none">-</td><td><b>Mode</b></td><td><b>Party</b></td></tr><tr><td style="display: none">*</td><td>Legal</td><td><a href="Bundle-UC1-SwissIpsDocument2.html#urn-uuid-4d4e3587-42eb-4921-8c87-8bbf89b7eb4b">Martina Meier</a></td></tr></table><p><b>custodian</b>: <a href="Bundle-UC1-SwissIpsDocument2.html#urn-uuid-a27376ce-fa12-458d-a2dc-f90e63de126b">Spital</a></p><h3>RelatesTos</h3><table class="grid"><tr><td style="display: none">-</td><td><b>Code</b></td><td><b>Target[x]</b></td></tr><tr><td style="display: none">*</td><td>Replaces</td><td><a href="http://terminology.hl7.org/6.3.0/NamingSystem-uri.html" title="As defined by RFC 3986 (http://www.ietf.org/rfc/rfc3986.txt)(with many schemes defined in many RFCs). For OIDs and UUIDs, use the URN form (urn:oid:(note: lowercase) and urn:uuid:). See http://www.ietf.org/rfc/rfc3001.txt and http://www.ietf.org/rfc/rfc4122.txt 

This oid is used as an identifier II.root to indicate the the extension is an absolute URI (technically, an IRI). Typically, this is used for OIDs and GUIDs. Note that when this OID is used with OIDs and GUIDs, the II.extension should start with urn:oid or urn:uuid: 

Note that this OID is created to aid with interconversion between CDA and FHIR - FHIR uses urn:ietf:rfc:3986 as equivalent to this OID. URIs as identifiers appear more commonly in FHIR.

This OID may also be used in CD.codeSystem.">Uniform Resource Identifier (URI)</a>/urn:uuid:22f9773e-1a6b-4561-8642-849f15b43b02</td></tr></table><h3>Events</h3><table class="grid"><tr><td style="display: none">-</td><td><b>Code</b></td><td><b>Period</b></td></tr><tr><td style="display: none">*</td><td><span title="Codes:{http://terminology.hl7.org/CodeSystem/v3-ActClass PCPR}">care provision</span></td><td>2024-01-11 10:00:00+0100 --&gt; 2024-05-03 09:30:00+0200</td></tr></table></div>
        </text>
        <identifier>
          <system value="urn:ietf:rfc:3986"/>
          <value value="urn:uuid:fe724e67-ac59-4933-b997-2770cc506f3b"/>
        </identifier>
        <status value="final"/>
        <type>
          <coding>
            <system value="http://loinc.org"/>
            <code value="60591-5"/>
            <display value="Patient summary Document"/>
          </coding>
        </type>
        <subject>
          <reference value="urn:uuid:8383926c-ece1-4384-94bc-b4250b4cb71b"/>
          <type value="Patient"/>
          <display value="Monika Wegmüller"/>
        </subject>
        <date value="2024-05-03T09:30:00+02:00"/>
        <author>
          <reference value="urn:uuid:869a4dd9-3a4a-4838-ad1e-42453d341147"/>
          <type value="PractitionerRole"/>
          <display value="Martina Meier @ Spital"/>
        </author>
        <title value="Patient Summary for IPS Switerland"/>
        <confidentiality value="N">
          <extension url="http://fhir.ch/ig/ch-core/StructureDefinition/ch-ext-epr-confidentialitycode">
            <valueCodeableConcept>
              <coding>
                <system value="http://snomed.info/sct"/>
                <code value="17621005"/>
                <display value="Normal (qualifier value)"/>
              </coding>
            </valueCodeableConcept>
          </extension>
        </confidentiality>
        <attester>
          <mode value="legal"/>
          <party>
            <reference value="urn:uuid:4d4e3587-42eb-4921-8c87-8bbf89b7eb4b"/>
            <type value="Practitioner"/>
            <display value="Martina Meier"/>
          </party>
        </attester>
        <custodian>
          <reference value="urn:uuid:a27376ce-fa12-458d-a2dc-f90e63de126b"/>
          <type value="Organization"/>
          <display value="Spital"/>
        </custodian>
        <relatesTo>
          <code value="replaces"/>
          <targetIdentifier>
            <system value="urn:ietf:rfc:3986"/>
            <value value="urn:uuid:22f9773e-1a6b-4561-8642-849f15b43b02"/>
          </targetIdentifier>
        </relatesTo>
        <event>
          <code>
            <coding>
              <system value="http://terminology.hl7.org/CodeSystem/v3-ActClass"/>
              <code value="PCPR"/>
              <display value="care provision"/>
            </coding>
          </code>
          <period>
            <start value="2024-01-11T10:00:00+01:00"/>
            <end value="2024-05-03T09:30:00+02:00"/>
          </period>
        </event>
        <section>
          <title value="Medikation"/>
          <code>
            <coding>
              <system value="http://loinc.org"/>
              <code value="10160-0"/>
              <display value="History of Medication use Narrative"/>
            </coding>
          </code>
          <text>
            <status value="generated"/><div xmlns="http://www.w3.org/1999/xhtml"><ul><li>Metformin</li><li>Atorvastatin</li><li>Clopidogrel</li><li>Aspirin</li></ul></div>
          </text>
          <entry>
            <reference value="urn:uuid:88ee1ffb-26d0-49a2-95e4-6212261805a6"/>
            <type value="MedicationStatement"/>
            <display value="Metformin"/>
          </entry>
          <entry>
            <reference value="urn:uuid:6f369210-adb1-4f11-893d-9977e34932de"/>
            <type value="MedicationStatement"/>
            <display value="Atorvastatin"/>
          </entry>
          <entry>
            <reference value="urn:uuid:e463547f-7414-47cb-b97f-04a81e1ab7d8"/>
            <type value="MedicationStatement"/>
            <display value="Clopidogrel"/>
          </entry>
          <entry>
            <reference value="urn:uuid:f27b9345-6ba6-4fd6-83ab-6db6c2acd981"/>
            <type value="MedicationStatement"/>
            <display value="Aspirin"/>
          </entry>
        </section>
        <section>
          <title value="Allergien und Intoleranzen"/>
          <code>
            <coding>
              <system value="http://loinc.org"/>
              <code value="48765-2"/>
              <display value="Allergies and adverse reactions Document"/>
            </coding>
          </code>
          <text>
            <status value="generated"/><div xmlns="http://www.w3.org/1999/xhtml"><ul><li>Keine bekannten Allergien</li></ul></div>
          </text>
          <entry>
            <reference value="urn:uuid:27da84cc-526a-4098-afb5-f08c7836d893"/>
            <type value="AllergyIntolerance"/>
            <display value="Keine bekannten Allergien"/>
          </entry>
        </section>
        <section>
          <title value="Problemliste"/>
          <code>
            <coding>
              <system value="http://loinc.org"/>
              <code value="11450-4"/>
              <display value="Problem list - Reported"/>
            </coding>
          </code>
          <text>
            <status value="generated"/><div xmlns="http://www.w3.org/1999/xhtml"><ul><li>Diabetes mellitus Typ 2</li><li>Bluthochdruck</li><li>Koronare Herzkrankheit</li><li>Herzinfarkt (26.04.2024)</li></ul></div>
          </text>
          <entry>
            <reference value="urn:uuid:506b9fef-be0a-4398-bb7e-7d14c311912f"/>
            <type value="Condition"/>
            <display value="Diabetes Mellitus Typ 2"/>
          </entry>
          <entry>
            <reference value="urn:uuid:8a79d459-0d2f-460b-87fd-a7de12d49871"/>
            <type value="Condition"/>
            <display value="Bluthochdruck"/>
          </entry>
          <entry>
            <reference value="urn:uuid:2c67cf62-d712-44c7-aedb-b5582bc707f1"/>
            <type value="Condition"/>
            <display value="Koronare Herzkrankheit"/>
          </entry>
          <entry>
            <reference value="urn:uuid:12d8debe-5e03-465d-83f3-17675be9db4a"/>
            <type value="Condition"/>
            <display value="Herzinfarkt (26.04.2024)"/>
          </entry>
        </section>
        <section>
          <title value="Behandlungsverlauf"/>
          <code>
            <coding>
              <system value="http://loinc.org"/>
              <code value="47519-4"/>
              <display value="History of Procedures Document"/>
            </coding>
          </code>
          <text>
            <status value="generated"/><div xmlns="http://www.w3.org/1999/xhtml"><ul><li>Stent (27.09.2022) aufgrund koronarer Herzkrankheit</li><li>Stent (26.04.2024) aufgrund Herzinfarkt</li></ul></div>
          </text>
          <entry>
            <reference value="urn:uuid:ad3ec07d-1814-4faf-86fd-1a8ebeecb5fe"/>
            <type value="Procedure"/>
            <display value="Stent (27.09.2022)"/>
          </entry>
          <entry>
            <reference value="urn:uuid:d646c888-7af0-4439-8aae-9fd490054583"/>
            <type value="Procedure"/>
            <display value="Stent (26.04.2024)"/>
          </entry>
        </section>
        <section>
          <title value="Impfungen"/>
          <code>
            <coding>
              <system value="http://loinc.org"/>
              <code value="11369-6"/>
              <display value="History of Immunization Narrative"/>
            </coding>
          </code>
          <text>
            <status value="generated"/><div xmlns="http://www.w3.org/1999/xhtml"><ul><li>DiTePe-Impfung (15.09.2017)</li></ul></div>
          </text>
          <entry>
            <reference value="urn:uuid:19efd704-3461-4120-b3cf-a76ae046e150"/>
            <type value="Immunization"/>
            <display value="DiTePe-Impfung (15.09.2017)"/>
          </entry>
        </section>
        <section>
          <title value="Vitalzeichen"/>
          <code>
            <coding>
              <system value="http://loinc.org"/>
              <code value="8716-3"/>
              <display value="Vital signs"/>
            </coding>
          </code>
          <text>
            <status value="generated"/><div xmlns="http://www.w3.org/1999/xhtml"><ul><li>Körpergewicht: 65 kg</li><li>Körpergrösse: 170 cm</li></ul></div>
          </text>
          <entry>
            <reference value="urn:uuid:db5ef7b0-e946-4260-a604-128b8887a41b"/>
            <type value="Observation"/>
            <display value="Körpergewicht: 65 kg"/>
          </entry>
          <entry>
            <reference value="urn:uuid:07b2e450-a62e-4734-98bf-51462f008e0f"/>
            <type value="Observation"/>
            <display value="Körpergrösse: 170 cm"/>
          </entry>
        </section>
        <section>
          <title value="Sozialanamnese"/>
          <code>
            <coding>
              <system value="http://loinc.org"/>
              <code value="29762-2"/>
              <display value="Social history Narrative"/>
            </coding>
          </code>
          <text>
            <status value="generated"/><div xmlns="http://www.w3.org/1999/xhtml"><ul><li>Ehemalige Raucherin</li></ul></div>
          </text>
          <entry>
            <reference value="urn:uuid:93fe0d81-a547-494e-941c-113506108b76"/>
            <type value="Observation"/>
            <display value="Ehemalige Raucherin"/>
          </entry>
        </section>
      </Composition>
    </resource>
  </entry>
  <entry>
    <fullUrl value="urn:uuid:8383926c-ece1-4384-94bc-b4250b4cb71b"/>
    <resource>
      <Patient>
        <id value="8383926c-ece1-4384-94bc-b4250b4cb71b"/>
        <meta>
          <profile value="http://fhir.ch/ig/ch-ips/StructureDefinition/ch-ips-patient"/>
        </meta>
        <text>
          <status value="generated"/><div xmlns="http://www.w3.org/1999/xhtml"><a name="Patient_8383926c-ece1-4384-94bc-b4250b4cb71b"> </a><p class="res-header-id"><b>Generated Narrative: Patient 8383926c-ece1-4384-94bc-b4250b4cb71b</b></p><a name="8383926c-ece1-4384-94bc-b4250b4cb71b"> </a><a name="hc8383926c-ece1-4384-94bc-b4250b4cb71b"> </a><div style="display: inline-block; background-color: #d9e0e7; padding: 6px; margin: 4px; border: 1px solid #8da1b4; border-radius: 5px; line-height: 60%"><p style="margin-bottom: 0px"/><p style="margin-bottom: 0px">Profile: <a href="StructureDefinition-ch-ips-patient.html">CH IPS Patient</a></p></div><p style="border: 1px #661aff solid; background-color: #e6e6ff; padding: 10px;">Monika Wegmüller  Female, DoB: 1943-05-15 ( Medical record number: 987654321)</p><hr/><table class="grid"><tr><td style="background-color: #f3f5da" title="Ways to contact the Patient">Contact Detail</td><td colspan="3">Wiesenstr. 12 Zürich 8003 CH </td></tr></table></div>
        </text>
        <identifier>
          <type>
            <coding>
              <system value="http://terminology.hl7.org/CodeSystem/v2-0203"/>
              <code value="MR"/>
              <display value="Medical record number"/>
            </coding>
          </type>
          <system value="http://example.com/fhir/pid"/>
          <value value="987654321"/>
        </identifier>
        <name>
          <family value="Wegmüller"/>
          <given value="Monika"/>
        </name>
        <gender value="female"/>
        <birthDate value="1943-05-15"/>
        <address>
          <line value="Wiesenstr. 12"/>
          <city value="Zürich"/>
          <postalCode value="8003"/>
          <country value="CH"/>
        </address>
      </Patient>
    </resource>
  </entry>
  <entry>
    <fullUrl value="urn:uuid:4d4e3587-42eb-4921-8c87-8bbf89b7eb4b"/>
    <resource>
      <Practitioner>
        <id value="4d4e3587-42eb-4921-8c87-8bbf89b7eb4b"/>
        <meta>
          <profile value="http://fhir.ch/ig/ch-ips/StructureDefinition/ch-ips-practitioner"/>
        </meta>
        <text>
          <status value="generated"/><div xmlns="http://www.w3.org/1999/xhtml"><a name="Practitioner_4d4e3587-42eb-4921-8c87-8bbf89b7eb4b"> </a><p class="res-header-id"><b>Generated Narrative: Practitioner 4d4e3587-42eb-4921-8c87-8bbf89b7eb4b</b></p><a name="4d4e3587-42eb-4921-8c87-8bbf89b7eb4b"> </a><a name="hc4d4e3587-42eb-4921-8c87-8bbf89b7eb4b"> </a><div style="display: inline-block; background-color: #d9e0e7; padding: 6px; margin: 4px; border: 1px solid #8da1b4; border-radius: 5px; line-height: 60%"><p style="margin-bottom: 0px"/><p style="margin-bottom: 0px">Profile: <a href="StructureDefinition-ch-ips-practitioner.html">CH IPS Practitioner</a></p></div><p><b>identifier</b>: <a href="https://www.gs1.org/standards/id-keys/gln" title="Global Location Number">GLN</a>/7601000234438</p><p><b>name</b>: Martina Meier </p></div>
        </text>
        <identifier>
          <system value="urn:oid:2.51.1.3"/>
          <value value="7601000234438"/>
        </identifier>
        <name>
          <family value="Meier"/>
          <given value="Martina"/>
        </name>
      </Practitioner>
    </resource>
  </entry>
  <entry>
    <fullUrl value="urn:uuid:869a4dd9-3a4a-4838-ad1e-42453d341147"/>
    <resource>
      <PractitionerRole>
        <id value="869a4dd9-3a4a-4838-ad1e-42453d341147"/>
        <meta>
          <profile value="http://fhir.ch/ig/ch-ips/StructureDefinition/ch-ips-practitionerrole"/>
        </meta>
        <text>
          <status value="generated"/><div xmlns="http://www.w3.org/1999/xhtml"><a name="PractitionerRole_869a4dd9-3a4a-4838-ad1e-42453d341147"> </a><p class="res-header-id"><b>Generated Narrative: PractitionerRole 869a4dd9-3a4a-4838-ad1e-42453d341147</b></p><a name="869a4dd9-3a4a-4838-ad1e-42453d341147"> </a><a name="hc869a4dd9-3a4a-4838-ad1e-42453d341147"> </a><div style="display: inline-block; background-color: #d9e0e7; padding: 6px; margin: 4px; border: 1px solid #8da1b4; border-radius: 5px; line-height: 60%"><p style="margin-bottom: 0px"/><p style="margin-bottom: 0px">Profile: <a href="StructureDefinition-ch-ips-practitionerrole.html">CH IPS PractitionerRole</a></p></div><p><b>practitioner</b>: <a href="Bundle-UC1-SwissIpsDocument2.html#urn-uuid-4d4e3587-42eb-4921-8c87-8bbf89b7eb4b">Practitioner Martina Meier </a></p><p><b>organization</b>: <a href="Bundle-UC1-SwissIpsDocument2.html#urn-uuid-a27376ce-fa12-458d-a2dc-f90e63de126b">Organization Spital</a></p></div>
        </text>
        <practitioner>
          <reference value="urn:uuid:4d4e3587-42eb-4921-8c87-8bbf89b7eb4b"/>
        </practitioner>
        <organization>
          <reference value="urn:uuid:a27376ce-fa12-458d-a2dc-f90e63de126b"/>
        </organization>
      </PractitionerRole>
    </resource>
  </entry>
  <entry>
    <fullUrl value="urn:uuid:a27376ce-fa12-458d-a2dc-f90e63de126b"/>
    <resource>
      <Organization>
        <id value="a27376ce-fa12-458d-a2dc-f90e63de126b"/>
        <meta>
          <profile value="http://fhir.ch/ig/ch-ips/StructureDefinition/ch-ips-organization"/>
        </meta>
        <text>
          <status value="generated"/><div xmlns="http://www.w3.org/1999/xhtml"><a name="Organization_a27376ce-fa12-458d-a2dc-f90e63de126b"> </a><p class="res-header-id"><b>Generated Narrative: Organization a27376ce-fa12-458d-a2dc-f90e63de126b</b></p><a name="a27376ce-fa12-458d-a2dc-f90e63de126b"> </a><a name="hca27376ce-fa12-458d-a2dc-f90e63de126b"> </a><div style="display: inline-block; background-color: #d9e0e7; padding: 6px; margin: 4px; border: 1px solid #8da1b4; border-radius: 5px; line-height: 60%"><p style="margin-bottom: 0px"/><p style="margin-bottom: 0px">Profile: <a href="StructureDefinition-ch-ips-organization.html">CH IPS Organization</a></p></div><p><b>identifier</b>: <a href="https://www.gs1.org/standards/id-keys/gln" title="Global Location Number">GLN</a>/7601000234438</p><p><b>name</b>: Spital</p><p><b>address</b>: Spitalstrasse 2 Zürich 8005 CH </p></div>
        </text>
        <identifier>
          <system value="urn:oid:2.51.1.3"/>
          <value value="7601000234438"/>
        </identifier>
        <name value="Spital"/>
        <address>
          <line value="Spitalstrasse 2"/>
          <city value="Zürich"/>
          <postalCode value="8005"/>
          <country value="CH"/>
        </address>
      </Organization>
    </resource>
  </entry>
  <entry>
    <fullUrl value="urn:uuid:88ee1ffb-26d0-49a2-95e4-6212261805a6"/>
    <resource>
      <MedicationStatement>
        <id value="88ee1ffb-26d0-49a2-95e4-6212261805a6"/>
        <meta>
          <profile value="http://fhir.ch/ig/ch-ips/StructureDefinition/ch-ips-medicationstatement"/>
        </meta>
        <text>
          <status value="generated"/><div xmlns="http://www.w3.org/1999/xhtml"><a name="MedicationStatement_88ee1ffb-26d0-49a2-95e4-6212261805a6"> </a><p class="res-header-id"><b>Generated Narrative: MedicationStatement 88ee1ffb-26d0-49a2-95e4-6212261805a6</b></p><a name="88ee1ffb-26d0-49a2-95e4-6212261805a6"> </a><a name="hc88ee1ffb-26d0-49a2-95e4-6212261805a6"> </a><div style="display: inline-block; background-color: #d9e0e7; padding: 6px; margin: 4px; border: 1px solid #8da1b4; border-radius: 5px; line-height: 60%"><p style="margin-bottom: 0px"/><p style="margin-bottom: 0px">Profile: <a href="StructureDefinition-ch-ips-medicationstatement.html">CH IPS MedicationStatement</a></p></div><p><b>status</b>: Active</p><p><b>medication</b>: <a href="#hc88ee1ffb-26d0-49a2-95e4-6212261805a6/Metformin">Medication METFORMIN axapharm Filmtabl 500 mg (Blister 50 Stk)</a></p><p><b>subject</b>: <a href="Bundle-UC1-SwissIpsDocument2.html#urn-uuid-8383926c-ece1-4384-94bc-b4250b4cb71b">Monika Wegmüller</a></p><p><b>effective</b>: 2020-03-03 --&gt; (ongoing)</p><p><b>reasonCode</b>: <span title="Codes:">Diabetes</span></p><blockquote><p><b>dosage</b></p><p><b>patientInstruction</b>: Unzerkaut während oder nach den Mahlzeiten mit ausreichend Flüssigkeit einnehmen</p><p><b>timing</b>: Morning, Evening, Once</p><p><b>route</b>: <span title="Codes:{urn:oid:0.4.0.127.0.16.1.1.2.1 20053000}">zum Einnehmen</span></p><h3>DoseAndRates</h3><table class="grid"><tr><td style="display: none">-</td><td><b>Dose[x]</b></td></tr><tr><td style="display: none">*</td><td>1 Tablet (unit of presentation)<span style="background: LightGoldenRodYellow"> (Details: SNOMED CT  code732936001 = 'Tablet (unit of presentation)')</span></td></tr></table></blockquote><hr/><blockquote><p class="res-header-id"><b>Generated Narrative: Medication #Metformin</b></p><a name="88ee1ffb-26d0-49a2-95e4-6212261805a6/Metformin"> </a><a name="hc88ee1ffb-26d0-49a2-95e4-6212261805a6/Metformin"> </a><div style="display: inline-block; background-color: #d9e0e7; padding: 6px; margin: 4px; border: 1px solid #8da1b4; border-radius: 5px; line-height: 60%"><p style="margin-bottom: 0px"/><p style="margin-bottom: 0px">Profile: <a href="StructureDefinition-ch-ips-medication.html">CH IPS Medication</a></p></div><p><b>code</b>: <span title="Codes:{urn:oid:2.51.1.1 7680696890012}">METFORMIN axapharm Filmtabl 500 mg</span></p><p><b>form</b>: <span title="Codes:{urn:oid:0.4.0.127.0.16.1.1.2.1 10219000}">Tablette</span></p><p><b>amount</b>: 50 Tablet (unit of presentation)<span style="background: LightGoldenRodYellow"> (Details: SNOMED CT  code732936001 = 'Tablet (unit of presentation)')</span>/1 Package - unit of product usage (qualifier value)<span style="background: LightGoldenRodYellow"> (Details: SNOMED CT  code1681000175101 = 'Package - unit of product usage')</span></p><h3>Ingredients</h3><table class="grid"><tr><td style="display: none">-</td><td><b>Item[x]</b></td><td><b>Strength</b></td></tr><tr><td style="display: none">*</td><td><span title="Codes:{http://snomed.info/sct 109083009}">Metformin hydrochloride</span></td><td>500 milligram<span style="background: LightGoldenRodYellow"> (Details: UCUM  codemg = 'mg')</span>/1 Tablet (unit of presentation)<span style="background: LightGoldenRodYellow"> (Details: SNOMED CT  code732936001 = 'Tablet (unit of presentation)')</span></td></tr></table></blockquote></div>
        </text>
        <contained>
          <Medication>
            <id value="Metformin"/>
            <meta>
              <profile value="http://fhir.ch/ig/ch-ips/StructureDefinition/ch-ips-medication"/>
            </meta>
            <code>
              <coding>
                <system value="urn:oid:2.51.1.1"/>
                <code value="7680696890012"/>
                <display value="METFORMIN axapharm Filmtabl 500 mg (Blister 50 Stk)"/>
              </coding>
              <text value="METFORMIN axapharm Filmtabl 500 mg"/>
            </code>
            <form>
              <coding>
                <system value="urn:oid:0.4.0.127.0.16.1.1.2.1"/>
                <code value="10219000"/>
                <display value="Tablet"/>
              </coding>
              <text value="Tablette"/>
            </form>
            <amount>
              <numerator>
                <value value="50"/>
                <unit value="Tablet (unit of presentation)"/>
                <system value="http://snomed.info/sct"/>
                <code value="732936001"/>
              </numerator>
              <denominator>
                <value value="1"/>
                <unit value="Package - unit of product usage (qualifier value)"/>
                <system value="http://snomed.info/sct"/>
                <code value="1681000175101"/>
              </denominator>
            </amount>
            <ingredient>
              <itemCodeableConcept>
                <coding>
                  <system value="http://snomed.info/sct"/>
                  <code value="109083009"/>
                  <display value="Metformin hydrochloride (substance)"/>
                </coding>
                <text value="Metformin hydrochloride"/>
              </itemCodeableConcept>
              <strength>
                <numerator>
                  <value value="500"/>
                  <unit value="milligram"/>
                  <system value="http://unitsofmeasure.org"/>
                  <code value="mg"/>
                </numerator>
                <denominator>
                  <value value="1"/>
                  <unit value="Tablet (unit of presentation)"/>
                  <system value="http://snomed.info/sct"/>
                  <code value="732936001"/>
                </denominator>
              </strength>
            </ingredient>
          </Medication>
        </contained>
        <status value="active"/>
        <medicationReference>
          <reference value="#Metformin"/>
        </medicationReference>
        <subject>
          <reference value="urn:uuid:8383926c-ece1-4384-94bc-b4250b4cb71b"/>
          <type value="Patient"/>
          <display value="Monika Wegmüller"/>
        </subject>
        <effectivePeriod>
          <start value="2020-03-03"/>
        </effectivePeriod>
        <reasonCode>
          <text value="Diabetes"/>
        </reasonCode>
        <dosage>
          <patientInstruction value="Unzerkaut während oder nach den Mahlzeiten mit ausreichend Flüssigkeit einnehmen"/>
          <timing>
            <repeat>
              <boundsPeriod>
                <start value="2020-03-03"/>
              </boundsPeriod>
              <when value="MORN"/>
              <when value="EVE"/>
            </repeat>
          </timing>
          <route>
            <coding>
              <system value="urn:oid:0.4.0.127.0.16.1.1.2.1"/>
              <code value="20053000"/>
              <display value="Oral use"/>
            </coding>
            <text value="zum Einnehmen"/>
          </route>
          <doseAndRate>
            <doseQuantity>
              <value value="1"/>
              <unit value="Tablet (unit of presentation)"/>
              <system value="http://snomed.info/sct"/>
              <code value="732936001"/>
            </doseQuantity>
          </doseAndRate>
        </dosage>
      </MedicationStatement>
    </resource>
  </entry>
  <entry>
    <fullUrl value="urn:uuid:6f369210-adb1-4f11-893d-9977e34932de"/>
    <resource>
      <MedicationStatement>
        <id value="6f369210-adb1-4f11-893d-9977e34932de"/>
        <meta>
          <profile value="http://fhir.ch/ig/ch-ips/StructureDefinition/ch-ips-medicationstatement"/>
        </meta>
        <text>
          <status value="generated"/><div xmlns="http://www.w3.org/1999/xhtml"><a name="MedicationStatement_6f369210-adb1-4f11-893d-9977e34932de"> </a><p class="res-header-id"><b>Generated Narrative: MedicationStatement 6f369210-adb1-4f11-893d-9977e34932de</b></p><a name="6f369210-adb1-4f11-893d-9977e34932de"> </a><a name="hc6f369210-adb1-4f11-893d-9977e34932de"> </a><div style="display: inline-block; background-color: #d9e0e7; padding: 6px; margin: 4px; border: 1px solid #8da1b4; border-radius: 5px; line-height: 60%"><p style="margin-bottom: 0px"/><p style="margin-bottom: 0px">Profile: <a href="StructureDefinition-ch-ips-medicationstatement.html">CH IPS MedicationStatement</a></p></div><p><b>status</b>: Active</p><p><b>medication</b>: <a href="#hc6f369210-adb1-4f11-893d-9977e34932de/Atorvastatin">Medication EZETIMIB Atorvast Mepha Filmtabl 10mg/40mg (Blister 30 Stk)</a></p><p><b>subject</b>: <a href="Bundle-UC1-SwissIpsDocument2.html#urn-uuid-8383926c-ece1-4384-94bc-b4250b4cb71b">Monika Wegmüller</a></p><p><b>effective</b>: 2024-05-03 --&gt; (ongoing)</p><p><b>reasonCode</b>: <span title="Codes:">Hypercholesterinämie</span></p><blockquote><p><b>dosage</b></p><p><b>sequence</b>: 1</p><p><b>patientInstruction</b>: Kann unabhängig von den Mahlzeiten eingenommen werden</p><p><b>timing</b>: Morning, Once</p><p><b>route</b>: <span title="Codes:{urn:oid:0.4.0.127.0.16.1.1.2.1 20053000}">zum Einnehmen</span></p><h3>DoseAndRates</h3><table class="grid"><tr><td style="display: none">-</td><td><b>Dose[x]</b></td></tr><tr><td style="display: none">*</td><td>0.5 Tablet (unit of presentation)<span style="background: LightGoldenRodYellow"> (Details: SNOMED CT  code732936001 = 'Tablet (unit of presentation)')</span></td></tr></table></blockquote><blockquote><p><b>dosage</b></p><p><b>sequence</b>: 2</p><p><b>timing</b>: Evening, Once</p><h3>DoseAndRates</h3><table class="grid"><tr><td style="display: none">-</td><td><b>Dose[x]</b></td></tr><tr><td style="display: none">*</td><td>1 Tablet (unit of presentation)<span style="background: LightGoldenRodYellow"> (Details: SNOMED CT  code732936001 = 'Tablet (unit of presentation)')</span></td></tr></table></blockquote><hr/><blockquote><p class="res-header-id"><b>Generated Narrative: Medication #Atorvastatin</b></p><a name="6f369210-adb1-4f11-893d-9977e34932de/Atorvastatin"> </a><a name="hc6f369210-adb1-4f11-893d-9977e34932de/Atorvastatin"> </a><div style="display: inline-block; background-color: #d9e0e7; padding: 6px; margin: 4px; border: 1px solid #8da1b4; border-radius: 5px; line-height: 60%"><p style="margin-bottom: 0px"/><p style="margin-bottom: 0px">Profile: <a href="StructureDefinition-ch-ips-medication.html">CH IPS Medication</a></p></div><p><b>code</b>: <span title="Codes:{urn:oid:2.51.1.1 7680682820054}">EZETIMIB Atorvast Mepha Filmtabl 10mg/40mg</span></p><p><b>form</b>: <span title="Codes:{urn:oid:0.4.0.127.0.16.1.1.2.1 10221000}">Filmtablette</span></p><p><b>amount</b>: 30 Tablet (unit of presentation)<span style="background: LightGoldenRodYellow"> (Details: SNOMED CT  code732936001 = 'Tablet (unit of presentation)')</span>/1 Package - unit of product usage (qualifier value)<span style="background: LightGoldenRodYellow"> (Details: SNOMED CT  code1681000175101 = 'Package - unit of product usage')</span></p></blockquote></div>
        </text>
        <contained>
          <Medication>
            <id value="Atorvastatin"/>
            <meta>
              <profile value="http://fhir.ch/ig/ch-ips/StructureDefinition/ch-ips-medication"/>
            </meta>
            <code>
              <coding>
                <system value="urn:oid:2.51.1.1"/>
                <code value="7680682820054"/>
                <display value="EZETIMIB Atorvast Mepha Filmtabl 10mg/40mg (Blister 30 Stk)"/>
              </coding>
              <text value="EZETIMIB Atorvast Mepha Filmtabl 10mg/40mg"/>
            </code>
            <form>
              <coding>
                <system value="urn:oid:0.4.0.127.0.16.1.1.2.1"/>
                <code value="10221000"/>
                <display value="Film-coated tablet"/>
              </coding>
              <text value="Filmtablette"/>
            </form>
            <amount>
              <numerator>
                <value value="30"/>
                <unit value="Tablet (unit of presentation)"/>
                <system value="http://snomed.info/sct"/>
                <code value="732936001"/>
              </numerator>
              <denominator>
                <value value="1"/>
                <unit value="Package - unit of product usage (qualifier value)"/>
                <system value="http://snomed.info/sct"/>
                <code value="1681000175101"/>
              </denominator>
            </amount>
          </Medication>
        </contained>
        <status value="active"/>
        <medicationReference>
          <reference value="#Atorvastatin"/>
        </medicationReference>
        <subject>
          <reference value="urn:uuid:8383926c-ece1-4384-94bc-b4250b4cb71b"/>
          <type value="Patient"/>
          <display value="Monika Wegmüller"/>
        </subject>
        <effectivePeriod>
          <start value="2024-05-03"/>
        </effectivePeriod>
        <reasonCode>
          <text value="Hypercholesterinämie"/>
        </reasonCode>
        <dosage>
          <sequence value="1"/>
          <patientInstruction value="Kann unabhängig von den Mahlzeiten eingenommen werden"/>
          <timing>
            <repeat>
              <boundsPeriod>
                <start value="2024-05-03"/>
              </boundsPeriod>
              <when value="MORN"/>
            </repeat>
          </timing>
          <route>
            <coding>
              <system value="urn:oid:0.4.0.127.0.16.1.1.2.1"/>
              <code value="20053000"/>
              <display value="Oral use"/>
            </coding>
            <text value="zum Einnehmen"/>
          </route>
          <doseAndRate>
            <doseQuantity>
              <value value="0.5"/>
              <unit value="Tablet (unit of presentation)"/>
              <system value="http://snomed.info/sct"/>
              <code value="732936001"/>
            </doseQuantity>
          </doseAndRate>
        </dosage>
        <dosage>
          <sequence value="2"/>
          <timing>
            <repeat>
              <when value="EVE"/>
            </repeat>
          </timing>
          <doseAndRate>
            <doseQuantity>
              <value value="1"/>
              <unit value="Tablet (unit of presentation)"/>
              <system value="http://snomed.info/sct"/>
              <code value="732936001"/>
            </doseQuantity>
          </doseAndRate>
        </dosage>
      </MedicationStatement>
    </resource>
  </entry>
  <entry>
    <fullUrl value="urn:uuid:e463547f-7414-47cb-b97f-04a81e1ab7d8"/>
    <resource>
      <MedicationStatement>
        <id value="e463547f-7414-47cb-b97f-04a81e1ab7d8"/>
        <meta>
          <profile value="http://fhir.ch/ig/ch-ips/StructureDefinition/ch-ips-medicationstatement"/>
        </meta>
        <text>
          <status value="generated"/><div xmlns="http://www.w3.org/1999/xhtml"><a name="MedicationStatement_e463547f-7414-47cb-b97f-04a81e1ab7d8"> </a><p class="res-header-id"><b>Generated Narrative: MedicationStatement e463547f-7414-47cb-b97f-04a81e1ab7d8</b></p><a name="e463547f-7414-47cb-b97f-04a81e1ab7d8"> </a><a name="hce463547f-7414-47cb-b97f-04a81e1ab7d8"> </a><div style="display: inline-block; background-color: #d9e0e7; padding: 6px; margin: 4px; border: 1px solid #8da1b4; border-radius: 5px; line-height: 60%"><p style="margin-bottom: 0px"/><p style="margin-bottom: 0px">Profile: <a href="StructureDefinition-ch-ips-medicationstatement.html">CH IPS MedicationStatement</a></p></div><p><b>status</b>: Active</p><p><b>medication</b>: <a href="#hce463547f-7414-47cb-b97f-04a81e1ab7d8/Clopidogrel">Medication CLOPIDOGREL axapharm Filmtabl 75 mg (Blister 28 Stk)</a></p><p><b>subject</b>: <a href="Bundle-UC1-SwissIpsDocument2.html#urn-uuid-8383926c-ece1-4384-94bc-b4250b4cb71b">Monika Wegmüller</a></p><p><b>effective</b>: 2024-05-03 --&gt; (ongoing)</p><p><b>reasonCode</b>: <span title="Codes:">Blutgerinnungshemmer</span></p><blockquote><p><b>dosage</b></p><p><b>patientInstruction</b>: Die Filmtablette soll mit etwas Wasser - unzerkaut und ohne sie zu lutschen - während oder unabhängig von den Mahlzeiten eingenommen werden. Es wird aber empfohlen, sie immer zum selben Zeitpunkt einzunehmen.</p><p><b>timing</b>: Morning, Once</p><p><b>route</b>: <span title="Codes:{urn:oid:0.4.0.127.0.16.1.1.2.1 20053000}">zum Einnehmen</span></p><h3>DoseAndRates</h3><table class="grid"><tr><td style="display: none">-</td><td><b>Dose[x]</b></td></tr><tr><td style="display: none">*</td><td>1 Tablet (unit of presentation)<span style="background: LightGoldenRodYellow"> (Details: SNOMED CT  code732936001 = 'Tablet (unit of presentation)')</span></td></tr></table></blockquote><hr/><blockquote><p class="res-header-id"><b>Generated Narrative: Medication #Clopidogrel</b></p><a name="e463547f-7414-47cb-b97f-04a81e1ab7d8/Clopidogrel"> </a><a name="hce463547f-7414-47cb-b97f-04a81e1ab7d8/Clopidogrel"> </a><div style="display: inline-block; background-color: #d9e0e7; padding: 6px; margin: 4px; border: 1px solid #8da1b4; border-radius: 5px; line-height: 60%"><p style="margin-bottom: 0px"/><p style="margin-bottom: 0px">Profile: <a href="StructureDefinition-ch-ips-medication.html">CH IPS Medication</a></p></div><p><b>code</b>: <span title="Codes:{urn:oid:2.51.1.1 7680659570012}">CLOPIDOGREL axapharm Filmtabl 75 mg</span></p><p><b>form</b>: <span title="Codes:{urn:oid:0.4.0.127.0.16.1.1.2.1 10221000}">Filmtablette</span></p><p><b>amount</b>: 28 Tablet (unit of presentation)<span style="background: LightGoldenRodYellow"> (Details: SNOMED CT  code732936001 = 'Tablet (unit of presentation)')</span>/1 Package - unit of product usage (qualifier value)<span style="background: LightGoldenRodYellow"> (Details: SNOMED CT  code1681000175101 = 'Package - unit of product usage')</span></p></blockquote></div>
        </text>
        <contained>
          <Medication>
            <id value="Clopidogrel"/>
            <meta>
              <profile value="http://fhir.ch/ig/ch-ips/StructureDefinition/ch-ips-medication"/>
            </meta>
            <code>
              <coding>
                <system value="urn:oid:2.51.1.1"/>
                <code value="7680659570012"/>
                <display value="CLOPIDOGREL axapharm Filmtabl 75 mg (Blister 28 Stk)"/>
              </coding>
              <text value="CLOPIDOGREL axapharm Filmtabl 75 mg"/>
            </code>
            <form>
              <coding>
                <system value="urn:oid:0.4.0.127.0.16.1.1.2.1"/>
                <code value="10221000"/>
                <display value="Film-coated tablet"/>
              </coding>
              <text value="Filmtablette"/>
            </form>
            <amount>
              <numerator>
                <value value="28"/>
                <unit value="Tablet (unit of presentation)"/>
                <system value="http://snomed.info/sct"/>
                <code value="732936001"/>
              </numerator>
              <denominator>
                <value value="1"/>
                <unit value="Package - unit of product usage (qualifier value)"/>
                <system value="http://snomed.info/sct"/>
                <code value="1681000175101"/>
              </denominator>
            </amount>
          </Medication>
        </contained>
        <status value="active"/>
        <medicationReference>
          <reference value="#Clopidogrel"/>
        </medicationReference>
        <subject>
          <reference value="urn:uuid:8383926c-ece1-4384-94bc-b4250b4cb71b"/>
          <type value="Patient"/>
          <display value="Monika Wegmüller"/>
        </subject>
        <effectivePeriod>
          <start value="2024-05-03"/>
        </effectivePeriod>
        <reasonCode>
          <text value="Blutgerinnungshemmer"/>
        </reasonCode>
        <dosage>
          <patientInstruction value="Die Filmtablette soll mit etwas Wasser - unzerkaut und ohne sie zu lutschen - während oder unabhängig von den Mahlzeiten eingenommen werden. Es wird aber empfohlen, sie immer zum selben Zeitpunkt einzunehmen."/>
          <timing>
            <repeat>
              <boundsPeriod>
                <start value="2024-05-03"/>
              </boundsPeriod>
              <when value="MORN"/>
            </repeat>
          </timing>
          <route>
            <coding>
              <system value="urn:oid:0.4.0.127.0.16.1.1.2.1"/>
              <code value="20053000"/>
              <display value="Oral use"/>
            </coding>
            <text value="zum Einnehmen"/>
          </route>
          <doseAndRate>
            <doseQuantity>
              <value value="1"/>
              <unit value="Tablet (unit of presentation)"/>
              <system value="http://snomed.info/sct"/>
              <code value="732936001"/>
            </doseQuantity>
          </doseAndRate>
        </dosage>
      </MedicationStatement>
    </resource>
  </entry>
  <entry>
    <fullUrl value="urn:uuid:f27b9345-6ba6-4fd6-83ab-6db6c2acd981"/>
    <resource>
      <MedicationStatement>
        <id value="f27b9345-6ba6-4fd6-83ab-6db6c2acd981"/>
        <meta>
          <profile value="http://fhir.ch/ig/ch-ips/StructureDefinition/ch-ips-medicationstatement"/>
        </meta>
        <text>
          <status value="generated"/><div xmlns="http://www.w3.org/1999/xhtml"><a name="MedicationStatement_f27b9345-6ba6-4fd6-83ab-6db6c2acd981"> </a><p class="res-header-id"><b>Generated Narrative: MedicationStatement f27b9345-6ba6-4fd6-83ab-6db6c2acd981</b></p><a name="f27b9345-6ba6-4fd6-83ab-6db6c2acd981"> </a><a name="hcf27b9345-6ba6-4fd6-83ab-6db6c2acd981"> </a><div style="display: inline-block; background-color: #d9e0e7; padding: 6px; margin: 4px; border: 1px solid #8da1b4; border-radius: 5px; line-height: 60%"><p style="margin-bottom: 0px"/><p style="margin-bottom: 0px">Profile: <a href="StructureDefinition-ch-ips-medicationstatement.html">CH IPS MedicationStatement</a></p></div><p><b>status</b>: Active</p><p><b>medication</b>: <a href="#hcf27b9345-6ba6-4fd6-83ab-6db6c2acd981/Aspirin">Medication ASPIRIN CARDIO Filmtabl 100 mg (Blister 28 Stk)</a></p><p><b>subject</b>: <a href="Bundle-UC1-SwissIpsDocument2.html#urn-uuid-8383926c-ece1-4384-94bc-b4250b4cb71b">Monika Wegmüller</a></p><p><b>effective</b>: 2024-05-03 --&gt; (ongoing)</p><p><b>reasonCode</b>: <span title="Codes:">Herzinfarktprophylaxe</span></p><blockquote><p><b>dosage</b></p><p><b>patientInstruction</b>: Tabletten mit etwas Flüssigkeit mindestens eine halbe Stunde vor der Mahlzeit einnehmen</p><p><b>timing</b>: Morning, Once</p><p><b>route</b>: <span title="Codes:{urn:oid:0.4.0.127.0.16.1.1.2.1 20053000}">zum Einnehmen</span></p><h3>DoseAndRates</h3><table class="grid"><tr><td style="display: none">-</td><td><b>Dose[x]</b></td></tr><tr><td style="display: none">*</td><td>1 Tablet (unit of presentation)<span style="background: LightGoldenRodYellow"> (Details: SNOMED CT  code732936001 = 'Tablet (unit of presentation)')</span></td></tr></table></blockquote><hr/><blockquote><p class="res-header-id"><b>Generated Narrative: Medication #Aspirin</b></p><a name="f27b9345-6ba6-4fd6-83ab-6db6c2acd981/Aspirin"> </a><a name="hcf27b9345-6ba6-4fd6-83ab-6db6c2acd981/Aspirin"> </a><div style="display: inline-block; background-color: #d9e0e7; padding: 6px; margin: 4px; border: 1px solid #8da1b4; border-radius: 5px; line-height: 60%"><p style="margin-bottom: 0px"/><p style="margin-bottom: 0px">Profile: <a href="StructureDefinition-ch-ips-medication.html">CH IPS Medication</a></p></div><p><b>code</b>: <span title="Codes:{urn:oid:2.51.1.1 7680517950680}">ASPIRIN CARDIO Filmtabl 100 mg</span></p><p><b>form</b>: <span title="Codes:{urn:oid:0.4.0.127.0.16.1.1.2.1 10221000}">Filmtablette</span></p><p><b>amount</b>: 28 Tablet (unit of presentation)<span style="background: LightGoldenRodYellow"> (Details: SNOMED CT  code732936001 = 'Tablet (unit of presentation)')</span>/1 Package - unit of product usage (qualifier value)<span style="background: LightGoldenRodYellow"> (Details: SNOMED CT  code1681000175101 = 'Package - unit of product usage')</span></p></blockquote></div>
        </text>
        <contained>
          <Medication>
            <id value="Aspirin"/>
            <meta>
              <profile value="http://fhir.ch/ig/ch-ips/StructureDefinition/ch-ips-medication"/>
            </meta>
            <code>
              <coding>
                <system value="urn:oid:2.51.1.1"/>
                <code value="7680517950680"/>
                <display value="ASPIRIN CARDIO Filmtabl 100 mg (Blister 28 Stk)"/>
              </coding>
              <text value="ASPIRIN CARDIO Filmtabl 100 mg"/>
            </code>
            <form>
              <coding>
                <system value="urn:oid:0.4.0.127.0.16.1.1.2.1"/>
                <code value="10221000"/>
                <display value="Film-coated tablet"/>
              </coding>
              <text value="Filmtablette"/>
            </form>
            <amount>
              <numerator>
                <value value="28"/>
                <unit value="Tablet (unit of presentation)"/>
                <system value="http://snomed.info/sct"/>
                <code value="732936001"/>
              </numerator>
              <denominator>
                <value value="1"/>
                <unit value="Package - unit of product usage (qualifier value)"/>
                <system value="http://snomed.info/sct"/>
                <code value="1681000175101"/>
              </denominator>
            </amount>
          </Medication>
        </contained>
        <status value="active"/>
        <medicationReference>
          <reference value="#Aspirin"/>
        </medicationReference>
        <subject>
          <reference value="urn:uuid:8383926c-ece1-4384-94bc-b4250b4cb71b"/>
          <type value="Patient"/>
          <display value="Monika Wegmüller"/>
        </subject>
        <effectivePeriod>
          <start value="2024-05-03"/>
        </effectivePeriod>
        <reasonCode>
          <text value="Herzinfarktprophylaxe"/>
        </reasonCode>
        <dosage>
          <patientInstruction value="Tabletten mit etwas Flüssigkeit mindestens eine halbe Stunde vor der Mahlzeit einnehmen"/>
          <timing>
            <repeat>
              <boundsPeriod>
                <start value="2024-05-03"/>
              </boundsPeriod>
              <when value="MORN"/>
            </repeat>
          </timing>
          <route>
            <coding>
              <system value="urn:oid:0.4.0.127.0.16.1.1.2.1"/>
              <code value="20053000"/>
              <display value="Oral use"/>
            </coding>
            <text value="zum Einnehmen"/>
          </route>
          <doseAndRate>
            <doseQuantity>
              <value value="1"/>
              <unit value="Tablet (unit of presentation)"/>
              <system value="http://snomed.info/sct"/>
              <code value="732936001"/>
            </doseQuantity>
          </doseAndRate>
        </dosage>
      </MedicationStatement>
    </resource>
  </entry>
  <entry>
    <fullUrl value="urn:uuid:27da84cc-526a-4098-afb5-f08c7836d893"/>
    <resource>
      <AllergyIntolerance>
        <id value="27da84cc-526a-4098-afb5-f08c7836d893"/>
        <meta>
          <profile value="http://fhir.ch/ig/ch-ips/StructureDefinition/ch-ips-allergyintolerance"/>
        </meta>
        <text>
          <status value="generated"/><div xmlns="http://www.w3.org/1999/xhtml"><a name="AllergyIntolerance_27da84cc-526a-4098-afb5-f08c7836d893"> </a><p class="res-header-id"><b>Generated Narrative: AllergyIntolerance 27da84cc-526a-4098-afb5-f08c7836d893</b></p><a name="27da84cc-526a-4098-afb5-f08c7836d893"> </a><a name="hc27da84cc-526a-4098-afb5-f08c7836d893"> </a><div style="display: inline-block; background-color: #d9e0e7; padding: 6px; margin: 4px; border: 1px solid #8da1b4; border-radius: 5px; line-height: 60%"><p style="margin-bottom: 0px"/><p style="margin-bottom: 0px">Profile: <a href="StructureDefinition-ch-ips-allergyintolerance.html">CH IPS AllergyIntolerance</a></p></div><p><b>clinicalStatus</b>: <span title="Codes:{http://terminology.hl7.org/CodeSystem/allergyintolerance-clinical active}">Active</span></p><p><b>verificationStatus</b>: <span title="Codes:{http://terminology.hl7.org/CodeSystem/allergyintolerance-verification confirmed}">Confirmed</span></p><p><b>code</b>: <span title="Codes:{http://snomed.info/sct 716186003}">No known allergy (situation)</span></p><p><b>patient</b>: <a href="Bundle-UC1-SwissIpsDocument2.html#urn-uuid-8383926c-ece1-4384-94bc-b4250b4cb71b">Monika Wegmüller</a></p><p><b>recordedDate</b>: 2024-04-26</p><p><b>recorder</b>: <a href="Bundle-UC1-SwissIpsDocument2.html#urn-uuid-869a4dd9-3a4a-4838-ad1e-42453d341147">Martina Meier @ Spital</a></p></div>
        </text>
        <clinicalStatus>
          <coding>
            <system value="http://terminology.hl7.org/CodeSystem/allergyintolerance-clinical"/>
            <code value="active"/>
            <display value="Active"/>
          </coding>
        </clinicalStatus>
        <verificationStatus>
          <coding>
            <system value="http://terminology.hl7.org/CodeSystem/allergyintolerance-verification"/>
            <code value="confirmed"/>
            <display value="Confirmed"/>
          </coding>
        </verificationStatus>
        <code>
          <coding>
            <system value="http://snomed.info/sct"/>
            <code value="716186003"/>
            <display value="No known allergy (situation)"/>
          </coding>
        </code>
        <patient>
          <reference value="urn:uuid:8383926c-ece1-4384-94bc-b4250b4cb71b"/>
          <type value="Patient"/>
          <display value="Monika Wegmüller"/>
        </patient>
        <recordedDate value="2024-04-26"/>
        <recorder>
          <reference value="urn:uuid:869a4dd9-3a4a-4838-ad1e-42453d341147"/>
          <type value="PractitionerRole"/>
          <display value="Martina Meier @ Spital"/>
        </recorder>
      </AllergyIntolerance>
    </resource>
  </entry>
  <entry>
    <fullUrl value="urn:uuid:506b9fef-be0a-4398-bb7e-7d14c311912f"/>
    <resource>
      <Condition>
        <id value="506b9fef-be0a-4398-bb7e-7d14c311912f"/>
        <meta>
          <profile value="http://fhir.ch/ig/ch-ips/StructureDefinition/ch-ips-condition"/>
        </meta>
        <text>
          <status value="generated"/><div xmlns="http://www.w3.org/1999/xhtml"><a name="Condition_506b9fef-be0a-4398-bb7e-7d14c311912f"> </a><p class="res-header-id"><b>Generated Narrative: Condition 506b9fef-be0a-4398-bb7e-7d14c311912f</b></p><a name="506b9fef-be0a-4398-bb7e-7d14c311912f"> </a><a name="hc506b9fef-be0a-4398-bb7e-7d14c311912f"> </a><div style="display: inline-block; background-color: #d9e0e7; padding: 6px; margin: 4px; border: 1px solid #8da1b4; border-radius: 5px; line-height: 60%"><p style="margin-bottom: 0px"/><p style="margin-bottom: 0px">Profile: <a href="StructureDefinition-ch-ips-condition.html">CH IPS Condition</a></p></div><p><b>clinicalStatus</b>: <span title="Codes:{http://terminology.hl7.org/CodeSystem/condition-clinical active}">Active</span></p><p><b>verificationStatus</b>: <span title="Codes:{http://terminology.hl7.org/CodeSystem/condition-ver-status confirmed}">Confirmed</span></p><p><b>category</b>: <span title="Codes:{http://terminology.hl7.org/CodeSystem/condition-category problem-list-item}">Problem List Item</span></p><p><b>severity</b>: <span title="Codes:{http://snomed.info/sct 6736007}">Moderate (severity modifier) (qualifier value)</span></p><p><b>code</b>: <span title="Codes:{http://snomed.info/sct 44054006}">Diabetes mellitus type 2 (disorder)</span></p><p><b>subject</b>: <a href="Bundle-UC1-SwissIpsDocument2.html#urn-uuid-8383926c-ece1-4384-94bc-b4250b4cb71b">Monika Wegmüller</a></p></div>
        </text>
        <clinicalStatus>
          <coding>
            <system value="http://terminology.hl7.org/CodeSystem/condition-clinical"/>
            <code value="active"/>
            <display value="Active"/>
          </coding>
        </clinicalStatus>
        <verificationStatus>
          <coding>
            <system value="http://terminology.hl7.org/CodeSystem/condition-ver-status"/>
            <code value="confirmed"/>
            <display value="Confirmed"/>
          </coding>
        </verificationStatus>
        <category>
          <coding>
            <system value="http://terminology.hl7.org/CodeSystem/condition-category"/>
            <code value="problem-list-item"/>
            <display value="Problem List Item"/>
          </coding>
        </category>
        <severity>
          <coding>
            <system value="http://snomed.info/sct"/>
            <code value="6736007"/>
            <display value="Moderate (severity modifier) (qualifier value)"/>
          </coding>
        </severity>
        <code>
          <coding>
            <system value="http://snomed.info/sct"/>
            <code value="44054006"/>
            <display value="Diabetes mellitus type 2 (disorder)"/>
          </coding>
        </code>
        <subject>
          <reference value="urn:uuid:8383926c-ece1-4384-94bc-b4250b4cb71b"/>
          <type value="Patient"/>
          <display value="Monika Wegmüller"/>
        </subject>
      </Condition>
    </resource>
  </entry>
  <entry>
    <fullUrl value="urn:uuid:8a79d459-0d2f-460b-87fd-a7de12d49871"/>
    <resource>
      <Condition>
        <id value="8a79d459-0d2f-460b-87fd-a7de12d49871"/>
        <meta>
          <profile value="http://fhir.ch/ig/ch-ips/StructureDefinition/ch-ips-condition"/>
        </meta>
        <text>
          <status value="generated"/><div xmlns="http://www.w3.org/1999/xhtml"><a name="Condition_8a79d459-0d2f-460b-87fd-a7de12d49871"> </a><p class="res-header-id"><b>Generated Narrative: Condition 8a79d459-0d2f-460b-87fd-a7de12d49871</b></p><a name="8a79d459-0d2f-460b-87fd-a7de12d49871"> </a><a name="hc8a79d459-0d2f-460b-87fd-a7de12d49871"> </a><div style="display: inline-block; background-color: #d9e0e7; padding: 6px; margin: 4px; border: 1px solid #8da1b4; border-radius: 5px; line-height: 60%"><p style="margin-bottom: 0px"/><p style="margin-bottom: 0px">Profile: <a href="StructureDefinition-ch-ips-condition.html">CH IPS Condition</a></p></div><p><b>clinicalStatus</b>: <span title="Codes:{http://terminology.hl7.org/CodeSystem/condition-clinical active}">Active</span></p><p><b>verificationStatus</b>: <span title="Codes:{http://terminology.hl7.org/CodeSystem/condition-ver-status confirmed}">Confirmed</span></p><p><b>category</b>: <span title="Codes:{http://terminology.hl7.org/CodeSystem/condition-category problem-list-item}">Problem List Item</span></p><p><b>severity</b>: <span title="Codes:{http://snomed.info/sct 6736007}">Moderate (severity modifier) (qualifier value)</span></p><p><b>code</b>: <span title="Codes:{http://snomed.info/sct 38341003}">Hypertensive disorder, systemic arterial (disorder)</span></p><p><b>subject</b>: <a href="Bundle-UC1-SwissIpsDocument2.html#urn-uuid-8383926c-ece1-4384-94bc-b4250b4cb71b">Monika Wegmüller</a></p></div>
        </text>
        <clinicalStatus>
          <coding>
            <system value="http://terminology.hl7.org/CodeSystem/condition-clinical"/>
            <code value="active"/>
            <display value="Active"/>
          </coding>
        </clinicalStatus>
        <verificationStatus>
          <coding>
            <system value="http://terminology.hl7.org/CodeSystem/condition-ver-status"/>
            <code value="confirmed"/>
            <display value="Confirmed"/>
          </coding>
        </verificationStatus>
        <category>
          <coding>
            <system value="http://terminology.hl7.org/CodeSystem/condition-category"/>
            <code value="problem-list-item"/>
            <display value="Problem List Item"/>
          </coding>
        </category>
        <severity>
          <coding>
            <system value="http://snomed.info/sct"/>
            <code value="6736007"/>
            <display value="Moderate (severity modifier) (qualifier value)"/>
          </coding>
        </severity>
        <code>
          <coding>
            <system value="http://snomed.info/sct"/>
            <code value="38341003"/>
            <display value="Hypertensive disorder, systemic arterial (disorder)"/>
          </coding>
        </code>
        <subject>
          <reference value="urn:uuid:8383926c-ece1-4384-94bc-b4250b4cb71b"/>
          <type value="Patient"/>
          <display value="Monika Wegmüller"/>
        </subject>
      </Condition>
    </resource>
  </entry>
  <entry>
    <fullUrl value="urn:uuid:2c67cf62-d712-44c7-aedb-b5582bc707f1"/>
    <resource>
      <Condition>
        <id value="2c67cf62-d712-44c7-aedb-b5582bc707f1"/>
        <meta>
          <profile value="http://fhir.ch/ig/ch-ips/StructureDefinition/ch-ips-condition"/>
        </meta>
        <text>
          <status value="generated"/><div xmlns="http://www.w3.org/1999/xhtml"><a name="Condition_2c67cf62-d712-44c7-aedb-b5582bc707f1"> </a><p class="res-header-id"><b>Generated Narrative: Condition 2c67cf62-d712-44c7-aedb-b5582bc707f1</b></p><a name="2c67cf62-d712-44c7-aedb-b5582bc707f1"> </a><a name="hc2c67cf62-d712-44c7-aedb-b5582bc707f1"> </a><div style="display: inline-block; background-color: #d9e0e7; padding: 6px; margin: 4px; border: 1px solid #8da1b4; border-radius: 5px; line-height: 60%"><p style="margin-bottom: 0px"/><p style="margin-bottom: 0px">Profile: <a href="StructureDefinition-ch-ips-condition.html">CH IPS Condition</a></p></div><p><b>clinicalStatus</b>: <span title="Codes:{http://terminology.hl7.org/CodeSystem/condition-clinical active}">Active</span></p><p><b>verificationStatus</b>: <span title="Codes:{http://terminology.hl7.org/CodeSystem/condition-ver-status confirmed}">Confirmed</span></p><p><b>category</b>: <span title="Codes:{http://terminology.hl7.org/CodeSystem/condition-category problem-list-item}">Problem List Item</span></p><p><b>severity</b>: <span title="Codes:{http://snomed.info/sct 6736007}">Moderate (severity modifier) (qualifier value)</span></p><p><b>code</b>: <span title="Codes:{http://snomed.info/sct 53741008}">Coronary arteriosclerosis (disorder)</span></p><p><b>subject</b>: <a href="Bundle-UC1-SwissIpsDocument2.html#urn-uuid-8383926c-ece1-4384-94bc-b4250b4cb71b">Monika Wegmüller</a></p></div>
        </text>
        <clinicalStatus>
          <coding>
            <system value="http://terminology.hl7.org/CodeSystem/condition-clinical"/>
            <code value="active"/>
            <display value="Active"/>
          </coding>
        </clinicalStatus>
        <verificationStatus>
          <coding>
            <system value="http://terminology.hl7.org/CodeSystem/condition-ver-status"/>
            <code value="confirmed"/>
            <display value="Confirmed"/>
          </coding>
        </verificationStatus>
        <category>
          <coding>
            <system value="http://terminology.hl7.org/CodeSystem/condition-category"/>
            <code value="problem-list-item"/>
            <display value="Problem List Item"/>
          </coding>
        </category>
        <severity>
          <coding>
            <system value="http://snomed.info/sct"/>
            <code value="6736007"/>
            <display value="Moderate (severity modifier) (qualifier value)"/>
          </coding>
        </severity>
        <code>
          <coding>
            <system value="http://snomed.info/sct"/>
            <code value="53741008"/>
            <display value="Coronary arteriosclerosis (disorder)"/>
          </coding>
        </code>
        <subject>
          <reference value="urn:uuid:8383926c-ece1-4384-94bc-b4250b4cb71b"/>
          <type value="Patient"/>
          <display value="Monika Wegmüller"/>
        </subject>
      </Condition>
    </resource>
  </entry>
  <entry>
    <fullUrl value="urn:uuid:12d8debe-5e03-465d-83f3-17675be9db4a"/>
    <resource>
      <Condition>
        <id value="12d8debe-5e03-465d-83f3-17675be9db4a"/>
        <meta>
          <profile value="http://fhir.ch/ig/ch-ips/StructureDefinition/ch-ips-condition"/>
        </meta>
        <text>
          <status value="generated"/><div xmlns="http://www.w3.org/1999/xhtml"><a name="Condition_12d8debe-5e03-465d-83f3-17675be9db4a"> </a><p class="res-header-id"><b>Generated Narrative: Condition 12d8debe-5e03-465d-83f3-17675be9db4a</b></p><a name="12d8debe-5e03-465d-83f3-17675be9db4a"> </a><a name="hc12d8debe-5e03-465d-83f3-17675be9db4a"> </a><div style="display: inline-block; background-color: #d9e0e7; padding: 6px; margin: 4px; border: 1px solid #8da1b4; border-radius: 5px; line-height: 60%"><p style="margin-bottom: 0px"/><p style="margin-bottom: 0px">Profile: <a href="StructureDefinition-ch-ips-condition.html">CH IPS Condition</a></p></div><p><b>clinicalStatus</b>: <span title="Codes:{http://terminology.hl7.org/CodeSystem/condition-clinical active}">Active</span></p><p><b>verificationStatus</b>: <span title="Codes:{http://terminology.hl7.org/CodeSystem/condition-ver-status confirmed}">Confirmed</span></p><p><b>category</b>: <span title="Codes:{http://terminology.hl7.org/CodeSystem/condition-category problem-list-item}">Problem List Item</span></p><p><b>severity</b>: <span title="Codes:{http://snomed.info/sct 24484000}">Severe (severity modifier) (qualifier value)</span></p><p><b>code</b>: <span title="Codes:{http://snomed.info/sct 22298006}">Myocardial infarction (disorder)</span></p><p><b>subject</b>: <a href="Bundle-UC1-SwissIpsDocument2.html#urn-uuid-8383926c-ece1-4384-94bc-b4250b4cb71b">Monika Wegmüller</a></p><p><b>onset</b>: 2024-04-26</p><p><b>recordedDate</b>: 2024-04-26</p><p><b>recorder</b>: <a href="Bundle-UC1-SwissIpsDocument2.html#urn-uuid-869a4dd9-3a4a-4838-ad1e-42453d341147">Martina Meier @ Spital</a></p><p><b>asserter</b>: <a href="Bundle-UC1-SwissIpsDocument2.html#urn-uuid-869a4dd9-3a4a-4838-ad1e-42453d341147">Martina Meier @ Spital</a></p></div>
        </text>
        <clinicalStatus>
          <coding>
            <system value="http://terminology.hl7.org/CodeSystem/condition-clinical"/>
            <code value="active"/>
            <display value="Active"/>
          </coding>
        </clinicalStatus>
        <verificationStatus>
          <coding>
            <system value="http://terminology.hl7.org/CodeSystem/condition-ver-status"/>
            <code value="confirmed"/>
            <display value="Confirmed"/>
          </coding>
        </verificationStatus>
        <category>
          <coding>
            <system value="http://terminology.hl7.org/CodeSystem/condition-category"/>
            <code value="problem-list-item"/>
            <display value="Problem List Item"/>
          </coding>
        </category>
        <severity>
          <coding>
            <system value="http://snomed.info/sct"/>
            <code value="24484000"/>
            <display value="Severe (severity modifier) (qualifier value)"/>
          </coding>
        </severity>
        <code>
          <coding>
            <system value="http://snomed.info/sct"/>
            <code value="22298006"/>
            <display value="Myocardial infarction (disorder)"/>
          </coding>
        </code>
        <subject>
          <reference value="urn:uuid:8383926c-ece1-4384-94bc-b4250b4cb71b"/>
          <type value="Patient"/>
          <display value="Monika Wegmüller"/>
        </subject>
        <onsetDateTime value="2024-04-26"/>
        <recordedDate value="2024-04-26"/>
        <recorder>
          <reference value="urn:uuid:869a4dd9-3a4a-4838-ad1e-42453d341147"/>
          <type value="PractitionerRole"/>
          <display value="Martina Meier @ Spital"/>
        </recorder>
        <asserter>
          <reference value="urn:uuid:869a4dd9-3a4a-4838-ad1e-42453d341147"/>
          <type value="PractitionerRole"/>
          <display value="Martina Meier @ Spital"/>
        </asserter>
      </Condition>
    </resource>
  </entry>
  <entry>
    <fullUrl value="urn:uuid:ad3ec07d-1814-4faf-86fd-1a8ebeecb5fe"/>
    <resource>
      <Procedure>
        <id value="ad3ec07d-1814-4faf-86fd-1a8ebeecb5fe"/>
        <meta>
          <profile value="http://hl7.org/fhir/uv/ips/StructureDefinition/Procedure-uv-ips"/>
        </meta>
        <text>
          <status value="generated"/><div xmlns="http://www.w3.org/1999/xhtml"><a name="Procedure_ad3ec07d-1814-4faf-86fd-1a8ebeecb5fe"> </a><p class="res-header-id"><b>Generated Narrative: Procedure ad3ec07d-1814-4faf-86fd-1a8ebeecb5fe</b></p><a name="ad3ec07d-1814-4faf-86fd-1a8ebeecb5fe"> </a><a name="hcad3ec07d-1814-4faf-86fd-1a8ebeecb5fe"> </a><div style="display: inline-block; background-color: #d9e0e7; padding: 6px; margin: 4px; border: 1px solid #8da1b4; border-radius: 5px; line-height: 60%"><p style="margin-bottom: 0px"/><p style="margin-bottom: 0px">Profile: <a href="http://hl7.org/fhir/uv/ips/STU2/StructureDefinition-Procedure-uv-ips.html">Procedure (IPS)</a></p></div><p><b>status</b>: Completed</p><p><b>code</b>: <span title="Codes:{http://snomed.info/sct 36969009}">Placement of stent in coronary artery (procedure)</span></p><p><b>subject</b>: <a href="Bundle-UC1-SwissIpsDocument2.html#urn-uuid-8383926c-ece1-4384-94bc-b4250b4cb71b">Monika Wegmüller</a></p><p><b>performed</b>: 2022-09-27</p><p><b>reasonCode</b>: <span title="Codes:">Koronare Herzkrankheit</span></p><p><b>reasonReference</b>: <a href="Bundle-UC1-SwissIpsDocument2.html#urn-uuid-2c67cf62-d712-44c7-aedb-b5582bc707f1">Koronare Herzkrankheit</a></p></div>
        </text>
        <status value="completed"/>
        <code>
          <coding>
            <system value="http://snomed.info/sct"/>
            <code value="36969009"/>
            <display value="Placement of stent in coronary artery (procedure)"/>
          </coding>
        </code>
        <subject>
          <reference value="urn:uuid:8383926c-ece1-4384-94bc-b4250b4cb71b"/>
          <type value="Patient"/>
          <display value="Monika Wegmüller"/>
        </subject>
        <performedDateTime value="2022-09-27"/>
        <reasonCode>
          <text value="Koronare Herzkrankheit"/>
        </reasonCode>
        <reasonReference>
          <reference value="urn:uuid:2c67cf62-d712-44c7-aedb-b5582bc707f1"/>
          <type value="Condition"/>
          <display value="Koronare Herzkrankheit"/>
        </reasonReference>
      </Procedure>
    </resource>
  </entry>
  <entry>
    <fullUrl value="urn:uuid:d646c888-7af0-4439-8aae-9fd490054583"/>
    <resource>
      <Procedure>
        <id value="d646c888-7af0-4439-8aae-9fd490054583"/>
        <meta>
          <profile value="http://hl7.org/fhir/uv/ips/StructureDefinition/Procedure-uv-ips"/>
        </meta>
        <text>
          <status value="generated"/><div xmlns="http://www.w3.org/1999/xhtml"><a name="Procedure_d646c888-7af0-4439-8aae-9fd490054583"> </a><p class="res-header-id"><b>Generated Narrative: Procedure d646c888-7af0-4439-8aae-9fd490054583</b></p><a name="d646c888-7af0-4439-8aae-9fd490054583"> </a><a name="hcd646c888-7af0-4439-8aae-9fd490054583"> </a><div style="display: inline-block; background-color: #d9e0e7; padding: 6px; margin: 4px; border: 1px solid #8da1b4; border-radius: 5px; line-height: 60%"><p style="margin-bottom: 0px"/><p style="margin-bottom: 0px">Profile: <a href="http://hl7.org/fhir/uv/ips/STU2/StructureDefinition-Procedure-uv-ips.html">Procedure (IPS)</a></p></div><p><b>status</b>: Completed</p><p><b>code</b>: <span title="Codes:{http://snomed.info/sct 36969009}">Placement of stent in coronary artery (procedure)</span></p><p><b>subject</b>: <a href="Bundle-UC1-SwissIpsDocument2.html#urn-uuid-8383926c-ece1-4384-94bc-b4250b4cb71b">Monika Wegmüller</a></p><p><b>performed</b>: 2024-04-26</p><p><b>recorder</b>: <a href="Bundle-UC1-SwissIpsDocument2.html#urn-uuid-869a4dd9-3a4a-4838-ad1e-42453d341147">Martina Meier @ Spital</a></p><p><b>asserter</b>: <a href="Bundle-UC1-SwissIpsDocument2.html#urn-uuid-869a4dd9-3a4a-4838-ad1e-42453d341147">Martina Meier @ Spital</a></p><h3>Performers</h3><table class="grid"><tr><td style="display: none">-</td><td><b>Actor</b></td></tr><tr><td style="display: none">*</td><td><a href="Bundle-UC1-SwissIpsDocument2.html#urn-uuid-869a4dd9-3a4a-4838-ad1e-42453d341147">Martina Meier @ Spital</a></td></tr></table><p><b>reasonCode</b>: <span title="Codes:">Herzinfarkt (26.04.2024)</span></p><p><b>reasonReference</b>: <a href="Bundle-UC1-SwissIpsDocument2.html#urn-uuid-12d8debe-5e03-465d-83f3-17675be9db4a">Herzinfarkt (26.04.2024)</a></p></div>
        </text>
        <status value="completed"/>
        <code>
          <coding>
            <system value="http://snomed.info/sct"/>
            <code value="36969009"/>
            <display value="Placement of stent in coronary artery (procedure)"/>
          </coding>
        </code>
        <subject>
          <reference value="urn:uuid:8383926c-ece1-4384-94bc-b4250b4cb71b"/>
          <type value="Patient"/>
          <display value="Monika Wegmüller"/>
        </subject>
        <performedDateTime value="2024-04-26"/>
        <recorder>
          <reference value="urn:uuid:869a4dd9-3a4a-4838-ad1e-42453d341147"/>
          <type value="PractitionerRole"/>
          <display value="Martina Meier @ Spital"/>
        </recorder>
        <asserter>
          <reference value="urn:uuid:869a4dd9-3a4a-4838-ad1e-42453d341147"/>
          <type value="PractitionerRole"/>
          <display value="Martina Meier @ Spital"/>
        </asserter>
        <performer>
          <actor>
            <reference value="urn:uuid:869a4dd9-3a4a-4838-ad1e-42453d341147"/>
            <type value="PractitionerRole"/>
            <display value="Martina Meier @ Spital"/>
          </actor>
        </performer>
        <reasonCode>
          <text value="Herzinfarkt (26.04.2024)"/>
        </reasonCode>
        <reasonReference>
          <reference value="urn:uuid:12d8debe-5e03-465d-83f3-17675be9db4a"/>
          <type value="Condition"/>
          <display value="Herzinfarkt (26.04.2024)"/>
        </reasonReference>
      </Procedure>
    </resource>
  </entry>
  <entry>
    <fullUrl value="urn:uuid:19efd704-3461-4120-b3cf-a76ae046e150"/>
    <resource>
      <Immunization>
        <id value="19efd704-3461-4120-b3cf-a76ae046e150"/>
        <meta>
          <profile value="http://fhir.ch/ig/ch-ips/StructureDefinition/ch-ips-immunization"/>
        </meta>
        <text>
          <status value="generated"/><div xmlns="http://www.w3.org/1999/xhtml"><a name="Immunization_19efd704-3461-4120-b3cf-a76ae046e150"> </a><p class="res-header-id"><b>Generated Narrative: Immunization 19efd704-3461-4120-b3cf-a76ae046e150</b></p><a name="19efd704-3461-4120-b3cf-a76ae046e150"> </a><a name="hc19efd704-3461-4120-b3cf-a76ae046e150"> </a><div style="display: inline-block; background-color: #d9e0e7; padding: 6px; margin: 4px; border: 1px solid #8da1b4; border-radius: 5px; line-height: 60%"><p style="margin-bottom: 0px"/><p style="margin-bottom: 0px">Profile: <a href="StructureDefinition-ch-ips-immunization.html">CH IPS Immunization</a></p></div><p><b>status</b>: Completed</p><p><b>vaccineCode</b>: <span title="Codes:{http://fhir.ch/ig/ch-vacd/CodeSystem/ch-vacd-swissmedic-cs 637}, {http://snomed.info/sct 871875004}">Boostrix</span></p><p><b>patient</b>: <a href="Bundle-UC1-SwissIpsDocument2.html#urn-uuid-8383926c-ece1-4384-94bc-b4250b4cb71b">Monika Wegmüller</a></p><p><b>occurrence</b>: 2017-09-15 09:12:56+0200</p><p><b>recorded</b>: 2017-09-15 09:12:56+0200</p><p><b>lotNumber</b>: 12-34244</p><p><b>route</b>: <span title="Codes:{urn:oid:0.4.0.127.0.16.1.1.2.1 20035000}">Intramuscular use</span></p><blockquote><p><b>protocolApplied</b></p><p><b>targetDisease</b>: <span title="Codes:{http://snomed.info/sct 397430003}">Diphtheria caused by Corynebacterium diphtheriae (disorder)</span>, <span title="Codes:{http://snomed.info/sct 76902006}">Tetanus (disorder)</span>, <span title="Codes:{http://snomed.info/sct 27836007}">Pertussis (disorder)</span></p><p><b>doseNumber</b>: 1</p></blockquote></div>
        </text>
        <status value="completed"/>
        <vaccineCode>
          <coding>
            <system value="http://fhir.ch/ig/ch-vacd/CodeSystem/ch-vacd-swissmedic-cs"/>
            <code value="637"/>
            <display value="Boostrix"/>
          </coding>
          <coding>
            <system value="http://snomed.info/sct"/>
            <code value="871875004"/>
            <display value="Vaccine product containing only Bordetella pertussis and Clostridium tetani and Corynebacterium diphtheriae antigens (medicinal product)"/>
          </coding>
        </vaccineCode>
        <patient>
          <reference value="urn:uuid:8383926c-ece1-4384-94bc-b4250b4cb71b"/>
          <type value="Patient"/>
          <display value="Monika Wegmüller"/>
        </patient>
        <occurrenceDateTime value="2017-09-15T09:12:56+02:00"/>
        <recorded value="2017-09-15T09:12:56+02:00"/>
        <lotNumber value="12-34244"/>
        <route>
          <coding>
            <system value="urn:oid:0.4.0.127.0.16.1.1.2.1"/>
            <code value="20035000"/>
            <display value="Intramuscular use"/>
          </coding>
        </route>
        <protocolApplied>
          <targetDisease>
            <coding>
              <system value="http://snomed.info/sct"/>
              <code value="397430003"/>
              <display value="Diphtheria caused by Corynebacterium diphtheriae (disorder)"/>
            </coding>
          </targetDisease>
          <targetDisease>
            <coding>
              <system value="http://snomed.info/sct"/>
              <code value="76902006"/>
              <display value="Tetanus (disorder)"/>
            </coding>
          </targetDisease>
          <targetDisease>
            <coding>
              <system value="http://snomed.info/sct"/>
              <code value="27836007"/>
              <display value="Pertussis (disorder)"/>
            </coding>
          </targetDisease>
          <doseNumberPositiveInt value="1"/>
        </protocolApplied>
      </Immunization>
    </resource>
  </entry>
  <entry>
    <fullUrl value="urn:uuid:db5ef7b0-e946-4260-a604-128b8887a41b"/>
    <resource>
      <Observation>
        <id value="db5ef7b0-e946-4260-a604-128b8887a41b"/>
        <meta>
          <profile value="http://hl7.org/fhir/StructureDefinition/bodyweight"/>
        </meta>
        <text>
          <status value="generated"/><div xmlns="http://www.w3.org/1999/xhtml"><a name="Observation_db5ef7b0-e946-4260-a604-128b8887a41b"> </a><p class="res-header-id"><b>Generated Narrative: Observation db5ef7b0-e946-4260-a604-128b8887a41b</b></p><a name="db5ef7b0-e946-4260-a604-128b8887a41b"> </a><a name="hcdb5ef7b0-e946-4260-a604-128b8887a41b"> </a><div style="display: inline-block; background-color: #d9e0e7; padding: 6px; margin: 4px; border: 1px solid #8da1b4; border-radius: 5px; line-height: 60%"><p style="margin-bottom: 0px"/><p style="margin-bottom: 0px">Profile: <a href="http://hl7.org/fhir/R4/bodyweight.html">Observation Body Weight Profile</a></p></div><p><b>status</b>: Final</p><p><b>category</b>: <span title="Codes:{http://terminology.hl7.org/CodeSystem/observation-category vital-signs}">Vital Signs</span></p><p><b>code</b>: <span title="Codes:{http://loinc.org 29463-7}">Body weight</span></p><p><b>subject</b>: <a href="Bundle-UC1-SwissIpsDocument2.html#urn-uuid-8383926c-ece1-4384-94bc-b4250b4cb71b">Monika Wegmüller</a></p><p><b>effective</b>: 2024-04-27 14:05:00+0200</p><p><b>performer</b>: <a href="Bundle-UC1-SwissIpsDocument2.html#urn-uuid-a27376ce-fa12-458d-a2dc-f90e63de126b">Spital</a></p><p><b>value</b>: 65 kilogram<span style="background: LightGoldenRodYellow"> (Details: UCUM  codekg = 'kg')</span></p></div>
        </text>
        <status value="final"/>
        <category>
          <coding>
            <system value="http://terminology.hl7.org/CodeSystem/observation-category"/>
            <code value="vital-signs"/>
            <display value="Vital Signs"/>
          </coding>
        </category>
        <code>
          <coding>
            <system value="http://loinc.org"/>
            <code value="29463-7"/>
            <display value="Body weight"/>
          </coding>
        </code>
        <subject>
          <reference value="urn:uuid:8383926c-ece1-4384-94bc-b4250b4cb71b"/>
          <type value="Patient"/>
          <display value="Monika Wegmüller"/>
        </subject>
        <effectiveDateTime value="2024-04-27T14:05:00+02:00"/>
        <performer>
          <reference value="urn:uuid:a27376ce-fa12-458d-a2dc-f90e63de126b"/>
          <type value="Organization"/>
          <display value="Spital"/>
        </performer>
        <valueQuantity>
          <value value="65"/>
          <unit value="kilogram"/>
          <system value="http://unitsofmeasure.org"/>
          <code value="kg"/>
        </valueQuantity>
      </Observation>
    </resource>
  </entry>
  <entry>
    <fullUrl value="urn:uuid:07b2e450-a62e-4734-98bf-51462f008e0f"/>
    <resource>
      <Observation>
        <id value="07b2e450-a62e-4734-98bf-51462f008e0f"/>
        <meta>
          <profile value="http://hl7.org/fhir/StructureDefinition/bodyheight"/>
        </meta>
        <text>
          <status value="generated"/><div xmlns="http://www.w3.org/1999/xhtml"><a name="Observation_07b2e450-a62e-4734-98bf-51462f008e0f"> </a><p class="res-header-id"><b>Generated Narrative: Observation 07b2e450-a62e-4734-98bf-51462f008e0f</b></p><a name="07b2e450-a62e-4734-98bf-51462f008e0f"> </a><a name="hc07b2e450-a62e-4734-98bf-51462f008e0f"> </a><div style="display: inline-block; background-color: #d9e0e7; padding: 6px; margin: 4px; border: 1px solid #8da1b4; border-radius: 5px; line-height: 60%"><p style="margin-bottom: 0px"/><p style="margin-bottom: 0px">Profile: <a href="http://hl7.org/fhir/R4/bodyheight.html">Observation Body Height Profile</a></p></div><p><b>status</b>: Final</p><p><b>category</b>: <span title="Codes:{http://terminology.hl7.org/CodeSystem/observation-category vital-signs}">Vital Signs</span></p><p><b>code</b>: <span title="Codes:{http://loinc.org 8302-2}">Body height</span></p><p><b>subject</b>: <a href="Bundle-UC1-SwissIpsDocument2.html#urn-uuid-8383926c-ece1-4384-94bc-b4250b4cb71b">Monika Wegmüller</a></p><p><b>effective</b>: 2024-04-27 14:05:00+0200</p><p><b>performer</b>: <a href="Bundle-UC1-SwissIpsDocument2.html#urn-uuid-a27376ce-fa12-458d-a2dc-f90e63de126b">Spital</a></p><p><b>value</b>: 170 centimeter<span style="background: LightGoldenRodYellow"> (Details: UCUM  codecm = 'cm')</span></p></div>
        </text>
        <status value="final"/>
        <category>
          <coding>
            <system value="http://terminology.hl7.org/CodeSystem/observation-category"/>
            <code value="vital-signs"/>
            <display value="Vital Signs"/>
          </coding>
        </category>
        <code>
          <coding>
            <system value="http://loinc.org"/>
            <code value="8302-2"/>
            <display value="Body height"/>
          </coding>
        </code>
        <subject>
          <reference value="urn:uuid:8383926c-ece1-4384-94bc-b4250b4cb71b"/>
          <type value="Patient"/>
          <display value="Monika Wegmüller"/>
        </subject>
        <effectiveDateTime value="2024-04-27T14:05:00+02:00"/>
        <performer>
          <reference value="urn:uuid:a27376ce-fa12-458d-a2dc-f90e63de126b"/>
          <type value="Organization"/>
          <display value="Spital"/>
        </performer>
        <valueQuantity>
          <value value="170"/>
          <unit value="centimeter"/>
          <system value="http://unitsofmeasure.org"/>
          <code value="cm"/>
        </valueQuantity>
      </Observation>
    </resource>
  </entry>
  <entry>
    <fullUrl value="urn:uuid:93fe0d81-a547-494e-941c-113506108b76"/>
    <resource>
      <Observation>
        <id value="93fe0d81-a547-494e-941c-113506108b76"/>
        <meta>
          <profile value="http://hl7.org/fhir/uv/ips/StructureDefinition/Observation-tobaccouse-uv-ips"/>
        </meta>
        <text>
          <status value="generated"/><div xmlns="http://www.w3.org/1999/xhtml"><a name="Observation_93fe0d81-a547-494e-941c-113506108b76"> </a><p class="res-header-id"><b>Generated Narrative: Observation 93fe0d81-a547-494e-941c-113506108b76</b></p><a name="93fe0d81-a547-494e-941c-113506108b76"> </a><a name="hc93fe0d81-a547-494e-941c-113506108b76"> </a><div style="display: inline-block; background-color: #d9e0e7; padding: 6px; margin: 4px; border: 1px solid #8da1b4; border-radius: 5px; line-height: 60%"><p style="margin-bottom: 0px"/><p style="margin-bottom: 0px">Profile: <a href="http://hl7.org/fhir/uv/ips/STU2/StructureDefinition-Observation-tobaccouse-uv-ips.html">Observation Social History - Tobacco Use (IPS)</a></p></div><p><b>status</b>: Final</p><p><b>code</b>: <span title="Codes:{http://loinc.org 72166-2}">Tobacco smoking status</span></p><p><b>subject</b>: <a href="Bundle-UC1-SwissIpsDocument2.html#urn-uuid-8383926c-ece1-4384-94bc-b4250b4cb71b">Monika Wegmüller</a></p><p><b>effective</b>: 2024-04-26</p><p><b>performer</b>: <a href="Bundle-UC1-SwissIpsDocument2.html#urn-uuid-a27376ce-fa12-458d-a2dc-f90e63de126b">Spital</a></p><p><b>value</b>: <span title="Codes:{http://loinc.org LA15920-4}">Former smoker</span></p></div>
        </text>
        <status value="final"/>
        <code>
          <coding>
            <system value="http://loinc.org"/>
            <code value="72166-2"/>
            <display value="Tobacco smoking status"/>
          </coding>
        </code>
        <subject>
          <reference value="urn:uuid:8383926c-ece1-4384-94bc-b4250b4cb71b"/>
          <type value="Patient"/>
          <display value="Monika Wegmüller"/>
        </subject>
        <effectiveDateTime value="2024-04-26"/>
        <performer>
          <reference value="urn:uuid:a27376ce-fa12-458d-a2dc-f90e63de126b"/>
          <type value="Organization"/>
          <display value="Spital"/>
        </performer>
        <valueCodeableConcept>
          <coding>
            <system value="http://loinc.org"/>
            <code value="LA15920-4"/>
            <display value="Former smoker"/>
          </coding>
        </valueCodeableConcept>
      </Observation>
    </resource>
  </entry>
</Bundle>