<?xml version="1.0" encoding="UTF-8"?>

<Bundle xmlns="http://hl7.org/fhir">
  <id value="1-3-VaccinationRecord"/>
  <meta>
    <lastUpdated value="2021-06-01T00:00:00.568+02:00"/>
    <profile value="http://fhir.ch/ig/ch-vacd/StructureDefinition/ch-vacd-document-vaccination-record"/>
  </meta>
  <identifier>
    <system value="urn:ietf:rfc:3986"/>
    <value value="urn:uuid:5b8a26b2-dd6d-4c04-acaf-e4a44b7bcf47"/>
  </identifier>
  <type value="document"/>
  <timestamp value="2021-06-01T00:00:00.568+02:00"/>
  <entry>
    <fullUrl value="http://test.fhir.ch/r4/Composition/2-3-VaccinationRecordComposition"/>
    <resource>
      <Composition>
        <id value="2-3-VaccinationRecordComposition"/>
        <meta>
          <profile value="http://fhir.ch/ig/ch-vacd/StructureDefinition/ch-vacd-composition-vaccination-record"/>
        </meta>
        <language value="en-US"/>
        <text>
          <status value="generated"/><div xmlns="http://www.w3.org/1999/xhtml" xml:lang="en-US" lang="en-US">This is the composition vaccination record.</div>
        </text>
        <extension id="versionNumber" url="http://fhir.ch/ig/ch-core/StructureDefinition/ch-ext-epr-versionnumber">
          <valueUnsignedInt value="1"/>
        </extension>
        <identifier>
          <system value="urn:ietf:rfc:3986"/>
          <value value="urn:uuid:00ae697d-3635-4c21-af13-4eaa8018c135"/>
        </identifier>
        <status value="final"/>
        <type>
          <coding>
            <system value="http://snomed.info/sct"/>
            <code value="41000179103"/>
            <display value="Immunization record"/>
          </coding>
        </type>
        <subject>
          <reference value="Patient/3-1-Patient"/>
        </subject>
        <date value="2021-06-01T00:00:00+02:00"/>
        <author>
          <reference value="PractitionerRole/6-1-PractitionerRole"/>
        </author>
        <title value="Vaccination Record"/>
        <confidentiality value="N">
          <extension url="http://fhir.ch/ig/ch-core/StructureDefinition/ch-ext-epr-confidentialitycode">
            <valueCodeableConcept>
              <coding>
                <system value="http://snomed.info/sct"/>
                <code value="17621005"/>
                <display value="Normal (qualifier value)"/>
              </coding>
            </valueCodeableConcept>
          </extension>
        </confidentiality>
        <custodian>
          <reference value="Organization/5-1-Organization"/>
        </custodian>
        <section id="administration">
          <title value="Immunization Administration"/>
          <code>
            <coding>
              <system value="http://loinc.org"/>
              <code value="11369-6"/>
              <display value="Hx of Immunization"/>
            </coding>
          </code>
          <text>
            <status value="generated"/><div xmlns="http://www.w3.org/1999/xhtml" xml:lang="en-US" lang="en-US">This is the section containing all immunization entries.</div>
          </text>
          <entry>
            <reference value="Immunization/7-2-Immunization"/>
          </entry>
          <entry>
            <reference value="Immunization/7-3-Immunization"/>
          </entry>
          <entry>
            <reference value="Immunization/7-4-Immunization"/>
          </entry>
          <entry>
            <reference value="Immunization/7-5-Immunization"/>
          </entry>
          <entry>
            <reference value="Immunization/7-6-Immunization"/>
          </entry>
        </section>
        <section id="medicalproblems">
          <title value="Other Relevant Observations"/>
          <code>
            <coding>
              <system value="http://loinc.org"/>
              <code value="11450-4"/>
              <display value="Problem list Reported"/>
            </coding>
          </code>
          <text>
            <status value="generated"/><div xmlns="http://www.w3.org/1999/xhtml" xml:lang="en-US" lang="en-US">This is the section containing the medical problem entries.</div>
          </text>
          <entry>
            <reference value="Condition/8-2-Condition"/>
          </entry>
          <entry>
            <reference value="Condition/8-3-Condition"/>
          </entry>
        </section>
        <section id="sectionIlnessesUndergondeForImmunization1">
          <title value="Undergone illnesses for immunization"/>
          <code>
            <coding>
              <system value="http://loinc.org"/>
              <code value="11348-0"/>
              <display value="Hx of Past illness"/>
            </coding>
          </code>
          <text>
            <status value="generated"/><div xmlns="http://www.w3.org/1999/xhtml" xml:lang="en-US" lang="en-US">This is the section containing the undergone illnesses for immunization entries.</div>
          </text>
          <entry>
            <reference value="Condition/8-4-Condition"/>
          </entry>
        </section>
        <section id="allergies">
          <title value="Allergies"/>
          <code>
            <coding>
              <system value="http://loinc.org"/>
              <code value="48765-2"/>
              <display value="Allergies and adverse reactions Document"/>
            </coding>
          </code>
          <text>
            <status value="generated"/><div xmlns="http://www.w3.org/1999/xhtml" xml:lang="en-US">This is the section containing the allergy entries.</div>
          </text>
          <entry>
            <reference value="AllergyIntolerance/11-1-AllergyIntolerance"/>
          </entry>
          <entry>
            <reference value="AllergyIntolerance/11-2-AllergyIntolerance"/>
          </entry>
        </section>
        <section id="otherRelevantObservations">
          <title value="Other Relevant Observations"/>
          <code>
            <coding>
              <system value="http://loinc.org"/>
              <code value="30954-2"/>
              <display value="Relevant diagnostic tests/laboratory data Narrative"/>
            </coding>
          </code>
          <text>
            <status value="generated"/><div xmlns="http://www.w3.org/1999/xhtml" xml:lang="en-US" lang="en-US">This section MAY contain relevant coded results of a patient for the given document context. The section MUST contain at least one Problem entry. In case of no relevant results, one of the 'special case' codes MUST be used. 
                     <br/>In the context of immunizations, this section may indicate the gestational age of a child if relevant for immunization of the child. 
                     <br/>In the context of lab reports, this section may indicate the gestational age of a child if relevant for the observation interpretation.
                  </div>
          </text>
          <entry>
            <reference value="Condition/8-9-Condition"/>
          </entry>
        </section>
        <section id="sectionLab1">
          <title value="Lab"/>
          <code>
            <coding>
              <system value="http://loinc.org"/>
              <code value="18727-8"/>
              <display value="Serology studies (set)"/>
            </coding>
          </code>
          <text>
            <status value="generated"/><div xmlns="http://www.w3.org/1999/xhtml" xml:lang="en-US" lang="en-US">This is the section containing the lab entries.</div>
          </text>
          <entry>
            <reference value="Observation/9-1-Observation"/>
          </entry>
        </section>
        <section id="pregnancy">
          <title value="Pregnancy"/>
          <code>
            <coding>
              <system value="http://loinc.org"/>
              <code value="10162-6"/>
              <display value="Pregnancies Hx"/>
            </coding>
          </code>
          <text>
            <status value="generated"/><div xmlns="http://www.w3.org/1999/xhtml" xml:lang="en-US" lang="en-US">This is the section containing the pregnancy status entry.</div>
          </text>
          <entry>
            <reference value="Condition/8-1-Condition"/>
          </entry>
        </section>
        <section id="sectionImmunizationRecomendations1">
          <title value="Vaccination Recommendations"/>
          <code>
            <coding>
              <system value="http://loinc.org"/>
              <code value="18776-5"/>
              <display value="Plan of care note"/>
            </coding>
          </code>
          <text>
            <status value="generated"/><div xmlns="http://www.w3.org/1999/xhtml" xml:lang="en-US" lang="en-US">This is the section containing all immunization recommendations entries.</div>
          </text>
          <entry>
            <reference value="ImmunizationRecommendation/10-2-ImmunizationRecommendation"/>
          </entry>
          <entry>
            <reference value="ImmunizationRecommendation/10-1-ImmunizationRecommendation"/>
          </entry>
        </section>
        <section id="annotation">
          <title value="Comments"/>
          <code>
            <coding>
              <system value="http://loinc.org"/>
              <code value="48767-8"/>
              <display value="Annotation comment [Interpretation] Narrative"/>
            </coding>
          </code>
          <text>
            <status value="generated"/><div xmlns="http://www.w3.org/1999/xhtml" xml:lang="en-US">This is the section containing all immunization entries.</div>
          </text>
        </section>
      </Composition>
    </resource>
  </entry>
  <entry>
    <fullUrl value="http://test.fhir.ch/r4/Patient/3-1-Patient"/>
    <resource>
      <Patient>
        <id value="3-1-Patient"/>
        <meta>
          <profile value="http://fhir.ch/ig/ch-core/StructureDefinition/ch-core-patient-epr"/>
        </meta>
        <text>
          <status value="generated"/><div xmlns="http://www.w3.org/1999/xhtml">
                  <div class="hapiHeaderText">Monika 
                     <b>WEGMUELLER </b>
                  </div>
                  <table class="hapiPropertyTable">
                     <tbody>
                        <tr>
                           <td>Identifier</td>
                           <td>123.71.332.115</td>
                        </tr>
                        <tr>
                           <td>Address</td>
                           <td>
                              <span>Leidensweg 10 </span>
                              <br/>
                              <span>Specimendorf </span>
                              <span>CH </span>
                           </td>
                        </tr>
                        <tr>
                           <td>Date of birth</td>
                           <td>
                              <span>10 February 1967</span>
                           </td>
                        </tr>
                     </tbody>
                  </table>
               </div>
        </text>
        <identifier>
          <system value="urn:oid:2.16.756.5.31"/>
          <value value="123.71.332.115"/>
        </identifier>
        <identifier>
          <system value="urn:oid:2.16.756.5.30.1.123.100.1.1.1"/>
          <value value="8077560000000000000000"/>
        </identifier>
        <name>
          <family value="Wegmueller"/>
          <given value="Monika"/>
        </name>
        <telecom>
          <system value="phone"/>
          <value value="tel:+41.32.685.12.34"/>
          <use value="home"/>
        </telecom>
        <gender value="female"/>
        <birthDate value="1967-02-10"/>
        <address>
          <type value="both"/>
          <line value="Leidensweg 10"/>
          <city value="Specimendorf"/>
          <postalCode value="9876"/>
          <country value="CH"/>
        </address>
      </Patient>
    </resource>
  </entry>
  <entry>
    <fullUrl value="http://test.fhir.ch/r4/Practitioner/4-1-Practitioner"/>
    <resource>
      <Practitioner>
        <id value="4-1-Practitioner"/>
        <meta>
          <profile value="http://fhir.ch/ig/ch-core/StructureDefinition/ch-core-practitioner-epr"/>
        </meta>
        <text>
          <status value="generated"/><div xmlns="http://www.w3.org/1999/xhtml"><p><b>Generated Narrative</b></p><p><b>identifier</b>: id: 7608888888888</p><p><b>active</b>: true</p><p><b>name</b>: Allzeit Bereit </p><p><b>telecom</b>: ph: tel:+41.32.234.55.66(WORK), fax: fax:+41.32.234.55.67(WORK), <a href="mailto:mailto:bereit@gruppenpraxis.ch">mailto:bereit@gruppenpraxis.ch</a>, <a href="http://www.gruppenpraxis.ch">http://www.gruppenpraxis.ch</a></p><p><b>address</b>: Doktorgasse 2 Musterhausen 8888 CH </p></div>
        </text>
        <identifier>
          <system value="urn:oid:2.51.1.3"/>
          <value value="7608888888888"/>
        </identifier>
        <active value="true"/>
        <name>
          <family value="Bereit"/>
          <given value="Allzeit"/>
          <prefix value="Dr. med."/>
        </name>
        <telecom>
          <system value="phone"/>
          <value value="tel:+41.32.234.55.66"/>
          <use value="work"/>
        </telecom>
        <telecom>
          <system value="fax"/>
          <value value="fax:+41.32.234.55.67"/>
          <use value="work"/>
        </telecom>
        <telecom>
          <system value="email"/>
          <value value="mailto:bereit@gruppenpraxis.ch"/>
          <use value="work"/>
        </telecom>
        <telecom>
          <system value="url"/>
          <value value="http://www.gruppenpraxis.ch"/>
          <use value="work"/>
        </telecom>
        <address>
          <type value="physical"/>
          <line value="Doktorgasse 2"/>
          <city value="Musterhausen"/>
          <postalCode value="8888"/>
          <country value="CH"/>
        </address>
      </Practitioner>
    </resource>
  </entry>
  <entry>
    <fullUrl value="http://test.fhir.ch/r4/Organization/5-1-Organization"/>
    <resource>
      <Organization>
        <id value="5-1-Organization"/>
        <meta>
          <profile value="http://fhir.ch/ig/ch-core/StructureDefinition/ch-core-organization-epr"/>
        </meta>
        <text>
          <status value="generated"/><div xmlns="http://www.w3.org/1999/xhtml"><p><b>Generated Narrative</b></p><p><b>identifier</b>: id: 7608888888888</p><p><b>name</b>: Gruppenpraxis CH</p><p><b>telecom</b>: ph: tel:+41.32.234.55.66(WORK), fax: fax:+41.32.234.55.67(WORK), <a href="mailto:mailto:bereit@gruppenpraxis.ch">mailto:bereit@gruppenpraxis.ch</a>, <a href="http://www.gruppenpraxis.ch">http://www.gruppenpraxis.ch</a></p><p><b>address</b>: Doktorgasse 2 Musterhausen ZH 8888 CH </p></div>
        </text>
        <identifier>
          <system value="urn:oid:2.51.1.3"/>
          <value value="7608888888888"/>
        </identifier>
        <name value="Gruppenpraxis CH"/>
        <telecom>
          <system value="phone"/>
          <value value="tel:+41.32.234.55.66"/>
          <use value="work"/>
        </telecom>
        <telecom>
          <system value="fax"/>
          <value value="fax:+41.32.234.55.67"/>
          <use value="work"/>
        </telecom>
        <telecom>
          <system value="email"/>
          <value value="mailto:bereit@gruppenpraxis.ch"/>
          <use value="work"/>
        </telecom>
        <telecom>
          <system value="url"/>
          <value value="http://www.gruppenpraxis.ch"/>
          <use value="work"/>
        </telecom>
        <address>
          <line value="Doktorgasse 2"/>
          <city value="Musterhausen"/>
          <state value="ZH"/>
          <postalCode value="8888"/>
          <country value="CH"/>
        </address>
      </Organization>
    </resource>
  </entry>
  <entry>
    <fullUrl value="http://test.fhir.ch/r4/PractitionerRole/6-1-PractitionerRole"/>
    <resource>
      <PractitionerRole>
        <id value="6-1-PractitionerRole"/>
        <meta>
          <profile value="http://fhir.ch/ig/ch-core/StructureDefinition/ch-core-practitionerrole-epr"/>
        </meta>
        <text>
          <status value="generated"/><div xmlns="http://www.w3.org/1999/xhtml"><p><b>Generated Narrative</b></p><p><b>active</b>: true</p><p><b>practitioner</b>: <a href="#Practitioner_4-1-Practitioner">See above (Practitioner/4-1-Practitioner)</a></p><p><b>organization</b>: <a href="#Organization_5-1-Organization">See above (Organization/5-1-Organization)</a></p></div>
        </text>
        <active value="true"/>
        <practitioner>
          <reference value="Practitioner/4-1-Practitioner"/>
        </practitioner>
        <organization>
          <reference value="Organization/5-1-Organization"/>
        </organization>
      </PractitionerRole>
    </resource>
  </entry>
  <entry>
    <fullUrl value="http://test.fhir.ch/r4/PractitionerRole/6-2-PractitionerRole"/>
    <resource>
      <PractitionerRole>
        <id value="6-2-PractitionerRole"/>
        <meta>
          <profile value="http://fhir.ch/ig/ch-core/StructureDefinition/ch-core-practitionerrole"/>
        </meta>
        <text>
          <status value="generated"/><div xmlns="http://www.w3.org/1999/xhtml"><p><b>Generated Narrative</b></p><p><b>active</b>: true</p><p><b>practitioner</b>: <a href="#Practitioner_4-2-Practitioner">See above (Practitioner/4-2-Practitioner)</a></p><p><b>organization</b>: <a href="#Organization_5-2-Organization">See above (Organization/5-2-Organization)</a></p></div>
        </text>
        <active value="true"/>
        <practitioner>
          <reference value="Practitioner/4-2-Practitioner"/>
        </practitioner>
        <organization>
          <reference value="Organization/5-2-Organization"/>
        </organization>
      </PractitionerRole>
    </resource>
  </entry>
  <entry>
    <fullUrl value="http://test.fhir.ch/r4/Practitioner/4-2-Practitioner"/>
    <resource>
      <Practitioner>
        <id value="4-2-Practitioner"/>
        <meta>
          <profile value="http://fhir.ch/ig/ch-core/StructureDefinition/ch-core-practitioner"/>
        </meta>
        <text>
          <status value="generated"/><div xmlns="http://www.w3.org/1999/xhtml"><p><b>Generated Narrative</b></p><p><b>identifier</b>: id: 2000000000030</p><p><b>active</b>: true</p><p><b>name</b>: Detlef Demo </p><p><b>address</b>: Hilfgasse 7 Hilferswil BE 3456 CH </p></div>
        </text>
        <identifier>
          <system value="urn:oid:2.51.1.3"/>
          <value value="2000000000030"/>
        </identifier>
        <active value="true"/>
        <name>
          <family value="Demo"/>
          <given value="Detlef"/>
        </name>
        <address id="12-6-Address">
          <line value="Hilfgasse 7"/>
          <city value="Hilferswil"/>
          <state value="BE"/>
          <postalCode value="3456"/>
          <country value="CH"/>
        </address>
      </Practitioner>
    </resource>
  </entry>
  <entry>
    <fullUrl value="http://test.fhir.ch/r4/Organization/5-2-Organization"/>
    <resource>
      <Organization>
        <id value="5-2-Organization"/>
        <meta>
          <profile value="http://fhir.ch/ig/ch-core/StructureDefinition/ch-core-organization"/>
        </meta>
        <text>
          <status value="generated"/><div xmlns="http://www.w3.org/1999/xhtml"><p><b>Generated Narrative</b></p><p><b>identifier</b>: id: 2010000000041</p><p><b>name</b>: Praxis Demo</p><p><b>address</b>: Hilfgasse 7 Hilferswil BE 3456 CH </p></div>
        </text>
        <identifier>
          <system value="urn:oid:2.51.1.3"/>
          <value value="2010000000041"/>
        </identifier>
        <name value="Praxis Demo"/>
        <address id="12-6-Address">
          <line value="Hilfgasse 7"/>
          <city value="Hilferswil"/>
          <state value="BE"/>
          <postalCode value="3456"/>
          <country value="CH"/>
        </address>
      </Organization>
    </resource>
  </entry>
  <entry>
    <fullUrl value="http://test.fhir.ch/r4/PractitionerRole/6-3-PractitionerRole"/>
    <resource>
      <PractitionerRole>
        <id value="6-3-PractitionerRole"/>
        <meta>
          <profile value="http://fhir.ch/ig/ch-core/StructureDefinition/ch-core-practitionerrole"/>
        </meta>
        <text>
          <status value="generated"/><div xmlns="http://www.w3.org/1999/xhtml"><p><b>Generated Narrative</b></p><p><b>active</b>: true</p><p><b>practitioner</b>: <a href="#Practitioner_4-3-Practitioner">See above (Practitioner/4-3-Practitioner)</a></p><p><b>organization</b>: <a href="#Organization_5-3-Organization">See above (Organization/5-3-Organization)</a></p></div>
        </text>
        <active value="true"/>
        <practitioner>
          <reference value="Practitioner/4-3-Practitioner"/>
        </practitioner>
        <organization>
          <reference value="Organization/5-3-Organization"/>
        </organization>
      </PractitionerRole>
    </resource>
  </entry>
  <entry>
    <fullUrl value="http://test.fhir.ch/r4/Practitioner/4-3-Practitioner"/>
    <resource>
      <Practitioner>
        <id value="4-3-Practitioner"/>
        <meta>
          <profile value="http://fhir.ch/ig/ch-core/StructureDefinition/ch-core-practitioner"/>
        </meta>
        <text>
          <status value="generated"/><div xmlns="http://www.w3.org/1999/xhtml"><p><b>Generated Narrative</b></p><p><b>identifier</b>: id: 2000000000031</p><p><b>active</b>: true</p><p><b>name</b>: Max Muster </p><p><b>address</b>: Mustergasse 99 Beispielen SG 9876 CH </p></div>
        </text>
        <identifier>
          <system value="urn:oid:2.51.1.3"/>
          <value value="2000000000031"/>
        </identifier>
        <active value="true"/>
        <name>
          <family value="Muster"/>
          <given value="Max"/>
        </name>
        <address>
          <line value="Mustergasse 99"/>
          <city value="Beispielen"/>
          <state value="SG"/>
          <postalCode value="9876"/>
          <country value="CH"/>
        </address>
      </Practitioner>
    </resource>
  </entry>
  <entry>
    <fullUrl value="http://test.fhir.ch/r4/Organization/5-3-Organization"/>
    <resource>
      <Organization>
        <id value="5-3-Organization"/>
        <meta>
          <profile value="http://fhir.ch/ig/ch-core/StructureDefinition/ch-core-organization"/>
        </meta>
        <text>
          <status value="generated"/><div xmlns="http://www.w3.org/1999/xhtml"><p><b>Generated Narrative</b></p><p><b>identifier</b>: id: 2010000000051</p><p><b>name</b>: Praxis Muster</p><p><b>address</b>: Mustergasse 99 Beispielen SG 9876 CH </p></div>
        </text>
        <identifier>
          <system value="urn:oid:2.51.1.3"/>
          <value value="2010000000051"/>
        </identifier>
        <name value="Praxis Muster"/>
        <address>
          <line value="Mustergasse 99"/>
          <city value="Beispielen"/>
          <state value="SG"/>
          <postalCode value="9876"/>
          <country value="CH"/>
        </address>
      </Organization>
    </resource>
  </entry>
  <entry>
    <fullUrl value="http://test.fhir.ch/r4/Immunization/7-2-Immunization"/>
    <resource>
      <Immunization>
        <id value="7-2-Immunization"/>
        <meta>
          <profile value="http://fhir.ch/ig/ch-vacd/StructureDefinition/ch-vacd-immunization"/>
        </meta>
        <text>
          <status value="generated"/><div xmlns="http://www.w3.org/1999/xhtml"><p><b>Generated Narrative</b></p><p><b>identifier</b>: id: 12345</p><p><b>status</b>: completed</p><p><b>vaccineCode</b>: <span title="Codes: {http://fhir.ch/ig/ch-vacd/CodeSystem/ch-vacd-swissmedic-cs 637}">Boostrix</span></p><p><b>patient</b>: <a href="#Patient_3-1-Patient">See above (Patient/3-1-Patient)</a></p><p><b>occurrence</b>: Sep 15, 2013, 12:00:00 AM</p><p><b>recorded</b>: Sep 15, 2013, 12:00:00 AM</p><p><b>lotNumber</b>: 12-34244</p><p><b>route</b>: <span title="Codes: {http://standardterms.edqm.eu 20035000}">Intramuscular use</span></p><h3>Performers</h3><table class="grid"><tr><td>-</td><td><b>Actor</b></td></tr><tr><td>*</td><td><a href="#PractitionerRole_6-2-PractitionerRole">See above (PractitionerRole/6-2-PractitionerRole)</a></td></tr></table><h3>ProtocolApplieds</h3><table class="grid"><tr><td>-</td><td><b>TargetDisease</b></td><td><b>DoseNumber[x]</b></td></tr><tr><td>*</td><td><span title="Codes: {http://snomed.info/sct 397430003}">Diphtheria caused by Corynebacterium diphtheriae (disorder)</span>, <span title="Codes: {http://snomed.info/sct 76902006}">Tetanus (disorder)</span>, <span title="Codes: {http://snomed.info/sct 27836007}">Pertussis (disorder)</span></td><td>1</td></tr></table></div>
        </text>
        <identifier>
          <system value="urn:oid:2.16.756.5.30.1.147.1.3.1"/>
          <value value="12345"/>
        </identifier>
        <status value="completed"/>
        <vaccineCode>
          <coding>
            <system value="http://fhir.ch/ig/ch-vacd/CodeSystem/ch-vacd-swissmedic-cs"/>
            <code value="637"/>
            <display value="Boostrix"/>
          </coding>
        </vaccineCode>
        <patient>
          <reference value="Patient/3-1-Patient"/>
        </patient>
        <occurrenceDateTime value="2013-09-15T00:00:00+02:00"/>
        <recorded value="2013-09-15T00:00:00+02:00"/>
        <lotNumber value="12-34244"/>
        <route>
          <coding>
            <system value="http://standardterms.edqm.eu"/>
            <code value="20035000"/>
            <display value="Intramuscular use"/>
          </coding>
        </route>
        <performer>
          <actor>
            <reference value="PractitionerRole/6-2-PractitionerRole"/>
          </actor>
        </performer>
        <protocolApplied>
          <targetDisease>
            <coding>
              <system value="http://snomed.info/sct"/>
              <code value="397430003"/>
              <display value="Diphtheria caused by Corynebacterium diphtheriae (disorder)"/>
            </coding>
          </targetDisease>
          <targetDisease>
            <coding>
              <system value="http://snomed.info/sct"/>
              <code value="76902006"/>
              <display value="Tetanus (disorder)"/>
            </coding>
          </targetDisease>
          <targetDisease>
            <coding>
              <system value="http://snomed.info/sct"/>
              <code value="27836007"/>
              <display value="Pertussis (disorder)"/>
            </coding>
          </targetDisease>
          <doseNumberPositiveInt value="1"/>
        </protocolApplied>
      </Immunization>
    </resource>
  </entry>
  <entry>
    <fullUrl value="http://test.fhir.ch/r4/Immunization/7-3-Immunization"/>
    <resource>
      <Immunization>
        <id value="7-3-Immunization"/>
        <meta>
          <profile value="http://fhir.ch/ig/ch-vacd/StructureDefinition/ch-vacd-immunization"/>
        </meta>
        <text>
          <status value="generated"/><div xmlns="http://www.w3.org/1999/xhtml"><p><b>Generated Narrative</b></p><p><b>identifier</b>: id: 23456</p><p><b>status</b>: completed</p><p><b>vaccineCode</b>: <span title="Codes: {http://fhir.ch/ig/ch-vacd/CodeSystem/ch-vacd-swissmedic-cs 637}">Boostrix</span></p><p><b>patient</b>: <a href="#Patient_3-1-Patient">See above (Patient/3-1-Patient)</a></p><p><b>occurrence</b>: Aug 12, 2014, 12:00:00 AM</p><p><b>recorded</b>: Aug 12, 2014, 12:00:00 AM</p><p><b>lotNumber</b>: 12-34244</p><p><b>route</b>: <span title="Codes: {http://standardterms.edqm.eu 20035000}">Intramuscular use</span></p><h3>Performers</h3><table class="grid"><tr><td>-</td><td><b>Actor</b></td></tr><tr><td>*</td><td><a href="#PractitionerRole_6-2-PractitionerRole">See above (PractitionerRole/6-2-PractitionerRole)</a></td></tr></table><h3>ProtocolApplieds</h3><table class="grid"><tr><td>-</td><td><b>TargetDisease</b></td><td><b>DoseNumber[x]</b></td></tr><tr><td>*</td><td><span title="Codes: {http://snomed.info/sct 397430003}">Diphtheria caused by Corynebacterium diphtheriae (disorder)</span>, <span title="Codes: {http://snomed.info/sct 76902006}">Tetanus (disorder)</span>, <span title="Codes: {http://snomed.info/sct 27836007}">Pertussis (disorder)</span></td><td>1</td></tr></table></div>
        </text>
        <identifier>
          <system value="urn:oid:2.16.756.5.30.1.147.1.3.1"/>
          <value value="23456"/>
        </identifier>
        <status value="completed"/>
        <vaccineCode>
          <coding>
            <system value="http://fhir.ch/ig/ch-vacd/CodeSystem/ch-vacd-swissmedic-cs"/>
            <code value="637"/>
            <display value="Boostrix"/>
          </coding>
        </vaccineCode>
        <patient>
          <reference value="Patient/3-1-Patient"/>
        </patient>
        <occurrenceDateTime value="2014-08-12T00:00:00+02:00"/>
        <recorded value="2014-08-12T00:00:00+02:00"/>
        <lotNumber value="12-34244"/>
        <route>
          <coding>
            <system value="http://standardterms.edqm.eu"/>
            <code value="20035000"/>
            <display value="Intramuscular use"/>
          </coding>
        </route>
        <performer>
          <actor>
            <reference value="PractitionerRole/6-2-PractitionerRole"/>
          </actor>
        </performer>
        <protocolApplied>
          <targetDisease>
            <coding>
              <system value="http://snomed.info/sct"/>
              <code value="397430003"/>
              <display value="Diphtheria caused by Corynebacterium diphtheriae (disorder)"/>
            </coding>
          </targetDisease>
          <targetDisease>
            <coding>
              <system value="http://snomed.info/sct"/>
              <code value="76902006"/>
              <display value="Tetanus (disorder)"/>
            </coding>
          </targetDisease>
          <targetDisease>
            <coding>
              <system value="http://snomed.info/sct"/>
              <code value="27836007"/>
              <display value="Pertussis (disorder)"/>
            </coding>
          </targetDisease>
          <doseNumberPositiveInt value="1"/>
        </protocolApplied>
      </Immunization>
    </resource>
  </entry>
  <entry>
    <fullUrl value="http://test.fhir.ch/r4/Immunization/7-4-Immunization"/>
    <resource>
      <Immunization>
        <id value="7-4-Immunization"/>
        <meta>
          <profile value="http://fhir.ch/ig/ch-vacd/StructureDefinition/ch-vacd-immunization"/>
        </meta>
        <text>
          <status value="generated"/><div xmlns="http://www.w3.org/1999/xhtml"><p><b>Generated Narrative</b></p><p><b>identifier</b>: id: 34567</p><p><b>status</b>: completed</p><p><b>vaccineCode</b>: <span title="Codes: {http://fhir.ch/ig/ch-vacd/CodeSystem/ch-vacd-swissmedic-cs 637}">Boostrix</span></p><p><b>patient</b>: <a href="#Patient_3-1-Patient">See above (Patient/3-1-Patient)</a></p><p><b>occurrence</b>: Nov 1, 2015, 12:00:00 AM</p><p><b>recorded</b>: Nov 1, 2015, 12:00:00 AM</p><p><b>lotNumber</b>: 12-34244</p><p><b>route</b>: <span title="Codes: {http://standardterms.edqm.eu 20035000}">Intramuscular use</span></p><h3>Performers</h3><table class="grid"><tr><td>-</td><td><b>Actor</b></td></tr><tr><td>*</td><td><a href="#PractitionerRole_6-2-PractitionerRole">See above (PractitionerRole/6-2-PractitionerRole)</a></td></tr></table><h3>ProtocolApplieds</h3><table class="grid"><tr><td>-</td><td><b>TargetDisease</b></td><td><b>DoseNumber[x]</b></td></tr><tr><td>*</td><td><span title="Codes: {http://snomed.info/sct 397430003}">Diphtheria caused by Corynebacterium diphtheriae (disorder)</span>, <span title="Codes: {http://snomed.info/sct 76902006}">Tetanus (disorder)</span>, <span title="Codes: {http://snomed.info/sct 27836007}">Pertussis (disorder)</span></td><td>1</td></tr></table></div>
        </text>
        <identifier>
          <system value="urn:oid:2.16.756.5.30.1.147.1.3.1"/>
          <value value="34567"/>
        </identifier>
        <status value="completed"/>
        <vaccineCode>
          <coding>
            <system value="http://fhir.ch/ig/ch-vacd/CodeSystem/ch-vacd-swissmedic-cs"/>
            <code value="637"/>
            <display value="Boostrix"/>
          </coding>
        </vaccineCode>
        <patient>
          <reference value="Patient/3-1-Patient"/>
        </patient>
        <occurrenceDateTime value="2015-11-01T00:00:00+01:00"/>
        <recorded value="2015-11-01T00:00:00+01:00"/>
        <lotNumber value="12-34244"/>
        <route>
          <coding>
            <system value="http://standardterms.edqm.eu"/>
            <code value="20035000"/>
            <display value="Intramuscular use"/>
          </coding>
        </route>
        <performer>
          <actor>
            <reference value="PractitionerRole/6-2-PractitionerRole"/>
          </actor>
        </performer>
        <protocolApplied>
          <targetDisease>
            <coding>
              <system value="http://snomed.info/sct"/>
              <code value="397430003"/>
              <display value="Diphtheria caused by Corynebacterium diphtheriae (disorder)"/>
            </coding>
          </targetDisease>
          <targetDisease>
            <coding>
              <system value="http://snomed.info/sct"/>
              <code value="76902006"/>
              <display value="Tetanus (disorder)"/>
            </coding>
          </targetDisease>
          <targetDisease>
            <coding>
              <system value="http://snomed.info/sct"/>
              <code value="27836007"/>
              <display value="Pertussis (disorder)"/>
            </coding>
          </targetDisease>
          <doseNumberPositiveInt value="1"/>
        </protocolApplied>
      </Immunization>
    </resource>
  </entry>
  <entry>
    <fullUrl value="http://test.fhir.ch/r4/Immunization/7-5-Immunization"/>
    <resource>
      <Immunization>
        <id value="7-5-Immunization"/>
        <meta>
          <profile value="http://fhir.ch/ig/ch-vacd/StructureDefinition/ch-vacd-immunization"/>
        </meta>
        <text>
          <status value="generated"/><div xmlns="http://www.w3.org/1999/xhtml"><p><b>Generated Narrative</b></p><p><b>identifier</b>: id: 45678</p><p><b>status</b>: completed</p><p><b>vaccineCode</b>: <span title="Codes: {http://fhir.ch/ig/ch-vacd/CodeSystem/ch-vacd-swissmedic-cs 268}">MMR-II</span></p><p><b>patient</b>: <a href="#Patient_3-1-Patient">See above (Patient/3-1-Patient)</a></p><p><b>occurrence</b>: Mar 5, 2016, 12:00:00 AM</p><p><b>recorded</b>: Mar 5, 2016, 12:00:00 AM</p><p><b>lotNumber</b>: 12-34244</p><p><b>route</b>: <span title="Codes: {http://standardterms.edqm.eu 20035000}">Intramuscular use</span></p><h3>Performers</h3><table class="grid"><tr><td>-</td><td><b>Actor</b></td></tr><tr><td>*</td><td><a href="#PractitionerRole_6-3-PractitionerRole">See above (PractitionerRole/6-3-PractitionerRole)</a></td></tr></table><h3>ProtocolApplieds</h3><table class="grid"><tr><td>-</td><td><b>TargetDisease</b></td><td><b>DoseNumber[x]</b></td></tr><tr><td>*</td><td><span title="Codes: {http://snomed.info/sct 14189004}">Measles (disorder)</span>, <span title="Codes: {http://snomed.info/sct 36989005}">Mumps (disorder)</span>, <span title="Codes: {http://snomed.info/sct 36653000}">Rubella (disorder)</span></td><td>1</td></tr></table></div>
        </text>
        <identifier>
          <system value="urn:oid:2.16.756.5.30.1.147.1.3.1"/>
          <value value="45678"/>
        </identifier>
        <status value="completed"/>
        <vaccineCode>
          <coding>
            <system value="http://fhir.ch/ig/ch-vacd/CodeSystem/ch-vacd-swissmedic-cs"/>
            <code value="268"/>
            <display value="MMR-II"/>
          </coding>
        </vaccineCode>
        <patient>
          <reference value="Patient/3-1-Patient"/>
        </patient>
        <occurrenceDateTime value="2016-03-05T00:00:00+01:00"/>
        <recorded value="2016-03-05T00:00:00+01:00"/>
        <lotNumber value="12-34244"/>
        <route>
          <coding>
            <system value="http://standardterms.edqm.eu"/>
            <code value="20035000"/>
            <display value="Intramuscular use"/>
          </coding>
        </route>
        <performer>
          <actor>
            <reference value="PractitionerRole/6-3-PractitionerRole"/>
          </actor>
        </performer>
        <protocolApplied>
          <targetDisease>
            <coding>
              <system value="http://snomed.info/sct"/>
              <code value="14189004"/>
              <display value="Measles (disorder)"/>
            </coding>
          </targetDisease>
          <targetDisease>
            <coding>
              <system value="http://snomed.info/sct"/>
              <code value="36989005"/>
              <display value="Mumps (disorder)"/>
            </coding>
          </targetDisease>
          <targetDisease>
            <coding>
              <system value="http://snomed.info/sct"/>
              <code value="36653000"/>
              <display value="Rubella (disorder)"/>
            </coding>
          </targetDisease>
          <doseNumberPositiveInt value="1"/>
        </protocolApplied>
      </Immunization>
    </resource>
  </entry>
  <entry>
    <fullUrl value="http://test.fhir.ch/r4/Immunization/7-6-Immunization"/>
    <resource>
      <Immunization>
        <id value="7-6-Immunization"/>
        <meta>
          <profile value="http://fhir.ch/ig/ch-vacd/StructureDefinition/ch-vacd-immunization"/>
        </meta>
        <text>
          <status value="generated"/><div xmlns="http://www.w3.org/1999/xhtml"><p><b>Generated Narrative</b></p><p><b>identifier</b>: id: 12312</p><p><b>status</b>: completed</p><p><b>statusReason</b>: <span title="Codes: {http://terminology.hl7.org/CodeSystem/v3-ActReason PATOBJ}">Patient objection</span></p><p><b>vaccineCode</b>: <span title="Codes: {http://fhir.ch/ig/ch-vacd/CodeSystem/ch-vacd-swissmedic-cs 545}">HBVAXPRO 40</span></p><p><b>patient</b>: <a href="#Patient_3-1-Patient">See above (Patient/3-1-Patient)</a></p><p><b>occurrence</b>: Feb 26, 2012, 12:00:00 AM</p><p><b>recorded</b>: Feb 26, 2012, 12:00:00 AM</p><p><b>lotNumber</b>: 12-34244</p><p><b>route</b>: <span title="Codes: {http://standardterms.edqm.eu 20035000}">Intramuscular use</span></p><h3>Performers</h3><table class="grid"><tr><td>-</td><td><b>Actor</b></td></tr><tr><td>*</td><td><a href="#PractitionerRole_6-3-PractitionerRole">See above (PractitionerRole/6-3-PractitionerRole)</a></td></tr></table><h3>ProtocolApplieds</h3><table class="grid"><tr><td>-</td><td><b>TargetDisease</b></td><td><b>DoseNumber[x]</b></td></tr><tr><td>*</td><td><span title="Codes: {http://snomed.info/sct 66071002}">Viral hepatitis type B (disorder)</span></td><td>1</td></tr></table></div>
        </text>
        <identifier>
          <system value="urn:oid:2.16.756.5.30.1.147.1.3.1"/>
          <value value="12312"/>
        </identifier>
        <status value="completed"/>
        <statusReason>
          <coding>
            <system value="http://terminology.hl7.org/CodeSystem/v3-ActReason"/>
            <code value="PATOBJ"/>
            <display value="Patient objection"/>
          </coding>
        </statusReason>
        <vaccineCode>
          <coding>
            <system value="http://fhir.ch/ig/ch-vacd/CodeSystem/ch-vacd-swissmedic-cs"/>
            <code value="545"/>
            <display value="HBVAXPRO 40"/>
          </coding>
        </vaccineCode>
        <patient>
          <reference value="Patient/3-1-Patient"/>
        </patient>
        <occurrenceDateTime value="2012-02-26T00:00:00+01:00"/>
        <recorded value="2012-02-26T00:00:00+01:00"/>
        <lotNumber value="12-34244"/>
        <route>
          <coding>
            <system value="http://standardterms.edqm.eu"/>
            <code value="20035000"/>
            <display value="Intramuscular use"/>
          </coding>
        </route>
        <performer>
          <actor>
            <reference value="PractitionerRole/6-3-PractitionerRole"/>
          </actor>
        </performer>
        <protocolApplied>
          <targetDisease>
            <coding>
              <system value="http://snomed.info/sct"/>
              <code value="66071002"/>
              <display value="Viral hepatitis type B (disorder)"/>
            </coding>
          </targetDisease>
          <doseNumberPositiveInt value="1"/>
        </protocolApplied>
      </Immunization>
    </resource>
  </entry>
  <entry>
    <fullUrl value="http://test.fhir.ch/r4/Condition/8-2-Condition"/>
    <resource>
      <Condition>
        <id value="8-2-Condition"/>
        <meta>
          <profile value="http://fhir.ch/ig/ch-vacd/StructureDefinition/ch-vacd-medical-problems"/>
        </meta>
        <text>
          <status value="generated"/><div xmlns="http://www.w3.org/1999/xhtml"><p><b>Generated Narrative</b></p><p><b>code</b>: <span title="Codes: {urn:oid:2.16.756.5.30.1.127.3.3.1 114036}">ANDERE_LEBERERKRANKUNG</span></p><p><b>subject</b>: <a href="#Patient_3-1-Patient">See above (Patient/3-1-Patient)</a></p><p><b>recordedDate</b>: Apr 1, 2019, 12:00:00 AM</p><p><b>recorder</b>: <a href="#PractitionerRole_6-1-PractitionerRole">See above (PractitionerRole/6-1-PractitionerRole)</a></p></div>
        </text>
        <code>
          <coding>
            <system value="urn:oid:2.16.756.5.30.1.127.3.3.1"/>
            <code value="114036"/>
            <display value="ANDERE_LEBERERKRANKUNG"/>
          </coding>
        </code>
        <subject>
          <reference value="Patient/3-1-Patient"/>
        </subject>
        <recordedDate value="2019-04-01T00:00:00+02:00"/>
        <recorder>
          <reference value="PractitionerRole/6-1-PractitionerRole"/>
        </recorder>
      </Condition>
    </resource>
  </entry>
  <entry>
    <fullUrl value="http://test.fhir.ch/r4/Condition/8-3-Condition"/>
    <resource>
      <Condition>
        <id value="8-3-Condition"/>
        <meta>
          <profile value="http://fhir.ch/ig/ch-vacd/StructureDefinition/ch-vacd-medical-problems"/>
        </meta>
        <text>
          <status value="generated"/><div xmlns="http://www.w3.org/1999/xhtml"><p><b>Generated Narrative</b></p><p><b>code</b>: <span title="Codes: {urn:oid:2.16.756.5.30.1.127.3.3.2 213006}">FLEDERMAUSFORSCHER_UND_SCHUETZER</span></p><p><b>subject</b>: <a href="#Patient_3-1-Patient">See above (Patient/3-1-Patient)</a></p><p><b>recordedDate</b>: Apr 1, 2009, 12:00:00 AM</p><p><b>recorder</b>: <a href="#PractitionerRole_6-1-PractitionerRole">See above (PractitionerRole/6-1-PractitionerRole)</a></p></div>
        </text>
        <code>
          <coding>
            <system value="urn:oid:2.16.756.5.30.1.127.3.3.2"/>
            <code value="213006"/>
            <display value="FLEDERMAUSFORSCHER_UND_SCHUETZER"/>
          </coding>
        </code>
        <subject>
          <reference value="Patient/3-1-Patient"/>
        </subject>
        <recordedDate value="2009-04-01T00:00:00+02:00"/>
        <recorder>
          <reference value="PractitionerRole/6-1-PractitionerRole"/>
        </recorder>
      </Condition>
    </resource>
  </entry>
  <entry>
    <fullUrl value="http://test.fhir.ch/r4/Condition/8-4-Condition"/>
    <resource>
      <Condition>
        <id value="8-4-Condition"/>
        <meta>
          <profile value="http://fhir.ch/ig/ch-vacd/StructureDefinition/ch-vacd-pastillnesses"/>
        </meta>
        <text>
          <status value="generated"/><div xmlns="http://www.w3.org/1999/xhtml"><p><b>Generated Narrative</b></p><p><b>code</b>: <span title="Codes: {http://snomed.info/sct 14189004}">Measles (disorder)</span></p><p><b>subject</b>: <a href="#Patient_3-1-Patient">See above (Patient/3-1-Patient)</a></p><p><b>onset</b>: Nov 30, 1966, 12:00:00 AM</p><p><b>recordedDate</b>: Apr 1, 1999, 12:00:00 AM</p><p><b>recorder</b>: <a href="#PractitionerRole_6-1-PractitionerRole">See above (PractitionerRole/6-1-PractitionerRole)</a></p></div>
        </text>
        <code>
          <coding>
            <system value="http://snomed.info/sct"/>
            <code value="14189004"/>
            <display value="Measles (disorder)"/>
          </coding>
        </code>
        <subject>
          <reference value="Patient/3-1-Patient"/>
        </subject>
        <onsetDateTime value="1966-11-30T00:00:00+01:00"/>
        <recordedDate value="1999-04-01T00:00:00+02:00"/>
        <recorder>
          <reference value="PractitionerRole/6-1-PractitionerRole"/>
        </recorder>
      </Condition>
    </resource>
  </entry>
  <entry>
    <fullUrl value="http://test.fhir.ch/r4/AllergyIntolerance/11-1-AllergyIntolerance"/>
    <resource>
      <AllergyIntolerance>
        <id value="11-1-AllergyIntolerance"/>
        <meta>
          <profile value="http://fhir.ch/ig/ch-vacd/StructureDefinition/ch-vacd-allergyintolerances"/>
        </meta>
        <text>
          <status value="generated"/><div xmlns="http://www.w3.org/1999/xhtml"><p><b>Generated Narrative</b></p><p><b>clinicalStatus</b>: <span title="Codes: {http://terminology.hl7.org/CodeSystem/allergyintolerance-clinical active}">Active</span></p><p><b>code</b>: <span title="Codes: {http://snomed.info/sct 213020009}">Allergy to egg protein (finding)</span></p><p><b>patient</b>: <a href="#Patient_3-1-Patient">See above (Patient/3-1-Patient)</a></p><p><b>recordedDate</b>: Jul 11, 2004, 12:00:00 AM</p><p><b>recorder</b>: <a href="#PractitionerRole_6-1-PractitionerRole">See above (PractitionerRole/6-1-PractitionerRole)</a></p></div>
        </text>
        <clinicalStatus>
          <coding>
            <system value="http://terminology.hl7.org/CodeSystem/allergyintolerance-clinical"/>
            <code value="active"/>
          </coding>
        </clinicalStatus>
        <code>
          <coding>
            <system value="http://snomed.info/sct"/>
            <code value="213020009"/>
            <display value="Allergy to egg protein (finding)"/>
          </coding>
        </code>
        <patient>
          <reference value="Patient/3-1-Patient"/>
        </patient>
        <recordedDate value="2004-07-11T00:00:00+02:00"/>
        <recorder>
          <reference value="PractitionerRole/6-1-PractitionerRole"/>
        </recorder>
      </AllergyIntolerance>
    </resource>
  </entry>
  <entry>
    <fullUrl value="http://test.fhir.ch/r4/AllergyIntolerance/11-2-AllergyIntolerance"/>
    <resource>
      <AllergyIntolerance>
        <id value="11-2-AllergyIntolerance"/>
        <meta>
          <profile value="http://fhir.ch/ig/ch-vacd/StructureDefinition/ch-vacd-allergyintolerances"/>
        </meta>
        <text>
          <status value="generated"/><div xmlns="http://www.w3.org/1999/xhtml"><p><b>Generated Narrative</b></p><p><b>clinicalStatus</b>: <span title="Codes: {http://terminology.hl7.org/CodeSystem/allergyintolerance-clinical active}">Active</span></p><p><b>code</b>: <span title="Codes: {http://snomed.info/sct 24079001}">Atopic dermatitis (disorder)</span></p><p><b>patient</b>: <a href="#Patient_3-1-Patient">See above (Patient/3-1-Patient)</a></p><p><b>recordedDate</b>: Jul 11, 1996, 12:00:00 AM</p><p><b>recorder</b>: <a href="#PractitionerRole_6-1-PractitionerRole">See above (PractitionerRole/6-1-PractitionerRole)</a></p></div>
        </text>
        <clinicalStatus>
          <coding>
            <system value="http://terminology.hl7.org/CodeSystem/allergyintolerance-clinical"/>
            <code value="active"/>
          </coding>
        </clinicalStatus>
        <code>
          <coding>
            <system value="http://snomed.info/sct"/>
            <code value="24079001"/>
            <display value="Atopic dermatitis (disorder)"/>
          </coding>
        </code>
        <patient>
          <reference value="Patient/3-1-Patient"/>
        </patient>
        <recordedDate value="1996-07-11T00:00:00+02:00"/>
        <recorder>
          <reference value="PractitionerRole/6-1-PractitionerRole"/>
        </recorder>
      </AllergyIntolerance>
    </resource>
  </entry>
  <entry>
    <fullUrl value="http://test.fhir.ch/r4/Condition/8-9-Condition"/>
    <resource>
      <Condition>
        <id value="8-9-Condition"/>
        <meta>
          <profile value="http://fhir.ch/ig/ch-vacd/StructureDefinition/ch-vacd-other-observations"/>
        </meta>
        <text>
          <status value="generated"/><div xmlns="http://www.w3.org/1999/xhtml"><p><b>Generated Narrative</b></p><p><b>code</b>: <span title="Codes: {http://loinc.org 49052-4}">Gestational age in days</span></p><p><b>subject</b>: <a href="#Patient_3-1-Patient">See above (Patient/3-1-Patient)</a></p><p><b>onset</b>: 266 day</p><p><b>recordedDate</b>: Mar 31, 2009, 12:00:00 AM</p><p><b>recorder</b>: <a href="#PractitionerRole_6-1-PractitionerRole">See above (PractitionerRole/6-1-PractitionerRole)</a></p></div>
        </text>
        <code>
          <coding>
            <system value="http://loinc.org"/>
            <code value="49052-4"/>
            <display value="Gestational age in days"/>
          </coding>
        </code>
        <subject>
          <reference value="Patient/3-1-Patient"/>
        </subject>
        <onsetAge>
          <value value="266"/>
          <unit value="day"/>
          <system value="http://unitsofmeasure.org"/>
          <code value="d"/>
        </onsetAge>
        <recordedDate value="2009-03-31T00:00:00+02:00"/>
        <recorder>
          <reference value="PractitionerRole/6-1-PractitionerRole"/>
        </recorder>
      </Condition>
    </resource>
  </entry>
  <entry>
    <fullUrl value="http://test.fhir.ch/r4/Observation/9-1-Observation"/>
    <resource>
      <Observation>
        <id value="9-1-Observation"/>
        <meta>
          <profile value="http://fhir.ch/ig/ch-vacd/StructureDefinition/ch-vacd-laboratory-serology"/>
        </meta>
        <text>
          <status value="generated"/><div xmlns="http://www.w3.org/1999/xhtml" xml:lang="en-US">There is an immunitzation protection against Hepatitis B.</div>
        </text>
        <status value="final"/>
        <code>
          <coding>
            <system value="http://loinc.org"/>
            <code value="16935-9"/>
            <display value="Hepatitis B virus surface Ab [Units/volume] in Serum"/>
          </coding>
        </code>
        <subject>
          <reference value="Patient/3-1-Patient"/>
        </subject>
        <effectiveDateTime value="1971-10"/>
        <performer>
          <reference value="PractitionerRole/6-1-PractitionerRole"/>
        </performer>
        <valueQuantity>
          <value value="99.0"/>
          <unit value="[iU]/L"/>
          <system value="http://unitsofmeasure.org"/>
          <code value="[iU]/L"/>
        </valueQuantity>
        <interpretation>
          <coding>
            <system value="http://terminology.hl7.org/CodeSystem/v3-ObservationInterpretation"/>
            <code value="POS"/>
            <display value="Positive"/>
          </coding>
        </interpretation>
      </Observation>
    </resource>
  </entry>
  <entry>
    <fullUrl value="http://test.fhir.ch/r4/Condition/8-1-Condition"/>
    <resource>
      <Condition>
        <id value="8-1-Condition"/>
        <meta>
          <profile value="http://fhir.ch/ig/ch-vacd/StructureDefinition/ch-vacd-pregnancy"/>
        </meta>
        <text>
          <status value="generated"/><div xmlns="http://www.w3.org/1999/xhtml"><p><b>Generated Narrative</b></p><p><b>code</b>: <span title="Codes: {http://loinc.org 11779-6}">Delivery date Estimated from last menstrual period</span></p><p><b>subject</b>: <a href="#Patient_3-1-Patient">See above (Patient/3-1-Patient)</a></p><p><b>onset</b>: Oct 31, 2021, 12:00:00 AM</p><p><b>recordedDate</b>: Jun 1, 2021, 12:00:00 AM</p><p><b>recorder</b>: <a href="#PractitionerRole_6-1-PractitionerRole">See above (PractitionerRole/6-1-PractitionerRole)</a></p></div>
        </text>
        <code>
          <coding>
            <system value="http://loinc.org"/>
            <code value="11779-6"/>
            <display value="Delivery date Estimated from last menstrual period"/>
          </coding>
        </code>
        <subject>
          <reference value="Patient/3-1-Patient"/>
        </subject>
        <onsetDateTime value="2021-10-31T00:00:00+02:00"/>
        <recordedDate value="2021-06-01T00:00:00+02:00"/>
        <recorder>
          <reference value="PractitionerRole/6-1-PractitionerRole"/>
        </recorder>
      </Condition>
    </resource>
  </entry>
  <entry>
    <fullUrl value="http://test.fhir.ch/r4/ImmunizationRecommendation/10-2-ImmunizationRecommendation"/>
    <resource>
      <ImmunizationRecommendation>
        <id value="10-2-ImmunizationRecommendation"/>
        <meta>
          <profile value="http://fhir.ch/ig/ch-vacd/StructureDefinition/ch-vacd-immunization-recommendations"/>
        </meta>
        <text>
          <status value="generated"/><div xmlns="http://www.w3.org/1999/xhtml"><p><b>Generated Narrative</b></p><p><b>identifier</b>: id: 1</p><p><b>patient</b>: <a href="#Patient_3-1-Patient">See above (Patient/3-1-Patient)</a></p><p><b>date</b>: Jun 1, 2021, 12:00:00 AM</p><h3>Recommendations</h3><table class="grid"><tr><td>-</td><td><b>VaccineCode</b></td><td><b>TargetDisease</b></td><td><b>ForecastStatus</b></td><td><b>ForecastReason</b></td></tr><tr><td>*</td><td><span title="Codes: {http://fhir.ch/ig/ch-vacd/CodeSystem/ch-vacd-swissmedic-cs 681}">Boostrix Polio</span></td><td><span title="Codes: {http://snomed.info/sct 398102009}">Acute poliomyelitis (disorder)</span></td><td><span title="Codes: {http://terminology.hl7.org/CodeSystem/immunization-recommendation-status due}">Due</span></td><td><span title="Codes: {urn:oid:2.16.756.5.30.1.127.3.3.4 41501}">Empfohlene Basisimpfungen</span></td></tr></table></div>
        </text>
        <identifier>
          <system value="urn:oid:2.16.756.5.30.1.147.1.3.1"/>
          <value value="1"/>
        </identifier>
        <patient>
          <reference value="Patient/3-1-Patient"/>
        </patient>
        <date value="2021-06-01T00:00:00+02:00"/>
        <recommendation>
          <vaccineCode>
            <coding>
              <system value="http://fhir.ch/ig/ch-vacd/CodeSystem/ch-vacd-swissmedic-cs"/>
              <code value="681"/>
              <display value="Boostrix Polio"/>
            </coding>
          </vaccineCode>
          <targetDisease>
            <coding>
              <system value="http://snomed.info/sct"/>
              <code value="398102009"/>
              <display value="Acute poliomyelitis (disorder)"/>
            </coding>
          </targetDisease>
          <forecastStatus>
            <coding>
              <system value="http://terminology.hl7.org/CodeSystem/immunization-recommendation-status"/>
              <code value="due"/>
              <display value="Due"/>
            </coding>
          </forecastStatus>
          <forecastReason>
            <coding>
              <system value="urn:oid:2.16.756.5.30.1.127.3.3.4"/>
              <code value="41501"/>
              <display value="Empfohlene Basisimpfungen"/>
            </coding>
          </forecastReason>
        </recommendation>
      </ImmunizationRecommendation>
    </resource>
  </entry>
  <entry>
    <fullUrl value="http://test.fhir.ch/r4/ImmunizationRecommendation/10-1-ImmunizationRecommendation"/>
    <resource>
      <ImmunizationRecommendation>
        <id value="10-1-ImmunizationRecommendation"/>
        <meta>
          <profile value="http://fhir.ch/ig/ch-vacd/StructureDefinition/ch-vacd-immunization-recommendations"/>
        </meta>
        <text>
          <status value="generated"/><div xmlns="http://www.w3.org/1999/xhtml"><p><b>Generated Narrative</b></p><p><b>identifier</b>: id: 2</p><p><b>patient</b>: <a href="#Patient_3-1-Patient">See above (Patient/3-1-Patient)</a></p><p><b>date</b>: Jun 1, 2021, 12:00:00 AM</p><h3>Recommendations</h3><table class="grid"><tr><td>-</td><td><b>VaccineCode</b></td><td><b>TargetDisease</b></td><td><b>ForecastStatus</b></td><td><b>ForecastReason</b></td></tr><tr><td>*</td><td><span title="Codes: {http://fhir.ch/ig/ch-vacd/CodeSystem/ch-vacd-swissmedic-cs 58317}">Fluad</span></td><td><span title="Codes: {http://snomed.info/sct 63650001}">Cholera (disorder)</span></td><td><span title="Codes: {http://terminology.hl7.org/CodeSystem/immunization-recommendation-status due}">Due</span></td><td><span title="Codes: {urn:oid:2.16.756.5.30.1.127.3.3.4 41503}">Empfohlene Impfungen fr Risikogruppen</span></td></tr></table></div>
        </text>
        <identifier>
          <system value="urn:oid:2.16.756.5.30.1.147.1.3.1"/>
          <value value="2"/>
        </identifier>
        <patient>
          <reference value="Patient/3-1-Patient"/>
        </patient>
        <date value="2021-06-01T00:00:00+02:00"/>
        <recommendation>
          <vaccineCode>
            <coding>
              <system value="http://fhir.ch/ig/ch-vacd/CodeSystem/ch-vacd-swissmedic-cs"/>
              <code value="58317"/>
              <display value="Fluad"/>
            </coding>
          </vaccineCode>
          <targetDisease>
            <coding>
              <system value="http://snomed.info/sct"/>
              <code value="63650001"/>
              <display value="Cholera (disorder)"/>
            </coding>
          </targetDisease>
          <forecastStatus>
            <coding>
              <system value="http://terminology.hl7.org/CodeSystem/immunization-recommendation-status"/>
              <code value="due"/>
              <display value="Due"/>
            </coding>
          </forecastStatus>
          <forecastReason>
            <coding>
              <system value="urn:oid:2.16.756.5.30.1.127.3.3.4"/>
              <code value="41503"/>
              <display value="Empfohlene Impfungen f&#xFC;r Risikogruppen"/>
            </coding>
          </forecastReason>
        </recommendation>
      </ImmunizationRecommendation>
    </resource>
  </entry>
</Bundle>