<?xml version="1.0" encoding="UTF-8"?>

<Bundle xmlns="http://hl7.org/fhir">
  <id value="29Doc-Rubella"/>
  <identifier>
    <system value="urn:ietf:rfc:3986"/>
    <value value="urn:uuid:3401332d-6012-443f-9690-9331adb23aab"/>
  </identifier>
  <type value="document"/>
  <timestamp value="2024-09-05T12:00:00+02:00"/>
  <entry>
    <fullUrl value="urn:uuid:55bafd86-696b-44cc-853c-621e85e34a47"/>
    <resource>
      <Composition>
        <id value="55bafd86-696b-44cc-853c-621e85e34a47"/>
        <language value="de-CH"/>
        <identifier>
          <system value="urn:ietf:rfc:3986"/>
          <value value="urn:uuid:3401332d-6012-443f-9690-9331adb23aab"/>
        </identifier>
        <status value="final"/>
        <type>
          <coding>
            <system value="http://snomed.info/sct"/>
            <version value="http://snomed.info/sct/2011000195101"/>
            <code value="4241000179101"/>
            <display value="Laborbericht"/>
          </coding>
          <coding>
            <system value="http://loinc.org"/>
            <code value="11502-2"/>
            <display value="Laboratory report"/>
          </coding>
        </type>
        <subject>
          <reference value="urn:uuid:66d17c6d-5b10-40c9-a2ef-c6aa78577aba"/>
        </subject>
        <date value="2024-09-05T12:00:00+02:00"/>
        <author>
          <reference value="urn:uuid:a95ea4e2-a7ce-48ef-bd5f-5a90e1c8e285"/>
        </author>
        <title value="Laborbericht vom 2.9.2024"/>
        <section>
          <title value="Analyseergebnisse der mikrobiologischen Untersuchung"/>
          <code>
            <coding>
              <system value="http://loinc.org"/>
              <code value="18725-2"/>
              <display value="Microbiology studies (set)"/>
            </coding>
          </code>
          <entry>
            <reference value="urn:uuid:f57d97fa-c151-47ca-a82f-3c8423b3ca28"/>
          </entry>
        </section>
      </Composition>
    </resource>
  </entry>
  <entry>
    <fullUrl value="urn:uuid:66d17c6d-5b10-40c9-a2ef-c6aa78577aba"/>
    <resource>
      <Patient>
        <id value="66d17c6d-5b10-40c9-a2ef-c6aa78577aba"/>
        <identifier>
          <system value="urn:oid:2.16.756.5.32"/>
          <value value="7561234567897"/>
        </identifier>
        <name>
          <family value="Dupont"/>
          <given value="Antoine"/>
        </name>
        <gender value="female"/>
        <birthDate value="1981-02-07"/>
        <address>
          <use value="home"/>
          <line value="rue de la république 10">
            <extension url="http://hl7.org/fhir/StructureDefinition/iso21090-ADXP-streetName">
              <valueString value="rue de la république"/>
            </extension>
            <extension url="http://hl7.org/fhir/StructureDefinition/iso21090-ADXP-houseNumber">
              <valueString value="10"/>
            </extension>
          </line>
          <city value="Carouge"/>
          <state value="GE"/>
          <postalCode value="1227"/>
          <country value="CH">
            <extension url="http://hl7.org/fhir/StructureDefinition/iso21090-SC-coding">
              <valueCoding>
                <system value="urn:iso:std:iso:3166"/>
                <code value="CH"/>
              </valueCoding>
            </extension>
          </country>
        </address>
      </Patient>
    </resource>
  </entry>
  <entry>
    <fullUrl value="urn:uuid:a95ea4e2-a7ce-48ef-bd5f-5a90e1c8e285"/>
    <resource>
      <Organization>
        <id value="a95ea4e2-a7ce-48ef-bd5f-5a90e1c8e285"/>
        <identifier>
          <system value="urn:oid:2.51.1.3"/>
          <value value="7601002331470"/>
        </identifier>
        <name value="SanLab"/>
      </Organization>
    </resource>
  </entry>
  <entry>
    <fullUrl value="urn:uuid:f57d97fa-c151-47ca-a82f-3c8423b3ca28"/>
    <resource>
      <Observation>
        <id value="f57d97fa-c151-47ca-a82f-3c8423b3ca28"/>
        <status value="final"/>
        <category>
          <coding>
            <system value="http://terminology.hl7.org/CodeSystem/observation-category"/>
            <code value="laboratory"/>
            <display value="Laboratory"/>
          </coding>
        </category>
        <code>
          <coding>
            <system value="http://loinc.org"/>
            <code value="20458-6"/>
          </coding>
        </code>
        <subject>
          <reference value="urn:uuid:66d17c6d-5b10-40c9-a2ef-c6aa78577aba"/>
        </subject>
        <effectiveDateTime value="2024-07-25T14:20:00+02:00"/>
        <performer>
          <reference value="urn:uuid:a95ea4e2-a7ce-48ef-bd5f-5a90e1c8e285"/>
        </performer>
        <dataAbsentReason>
          <coding>
            <system value="http://terminology.hl7.org/CodeSystem/data-absent-reason"/>
            <code value="not-applicable"/>
          </coding>
        </dataAbsentReason>
        <interpretation>
          <coding>
            <system value="http://snomed.info/sct"/>
            <code value="1290194006"/>
          </coding>
        </interpretation>
        <specimen>
          <reference value="urn:uuid:f00577b7-1e74-43cf-9830-ca72bdb2e619"/>
        </specimen>
      </Observation>
    </resource>
  </entry>
  <entry>
    <fullUrl value="urn:uuid:84417eb5-1ba3-4406-9504-12d83d7e719c"/>
    <resource>
      <Practitioner>
        <id value="84417eb5-1ba3-4406-9504-12d83d7e719c"/>
        <identifier>
          <system value="urn:oid:2.51.1.3"/>
          <value value="7601000000514"/>
        </identifier>
        <name>
          <family value="Hauser"/>
          <given value="Peter"/>
        </name>
        <telecom>
          <system value="phone"/>
          <value value="+41 79 222 33 44"/>
        </telecom>
        <telecom>
          <system value="email"/>
          <value value="peter.hauser@hauserpraxis.ch"/>
        </telecom>
      </Practitioner>
    </resource>
  </entry>
  <entry>
    <fullUrl value="urn:uuid:67319183-8fcc-40db-b88c-e7defd45c20d"/>
    <resource>
      <Organization>
        <id value="67319183-8fcc-40db-b88c-e7defd45c20d"/>
        <identifier>
          <system value="urn:oid:2.16.756.5.45"/>
          <value value="A74966168"/>
        </identifier>
        <name value="Praxis Dr. Hauser"/>
        <address>
          <line value="Hauptstrasse 10">
            <extension url="http://hl7.org/fhir/StructureDefinition/iso21090-ADXP-streetName">
              <valueString value="Hauptstrasse"/>
            </extension>
            <extension url="http://hl7.org/fhir/StructureDefinition/iso21090-ADXP-houseNumber">
              <valueString value="10"/>
            </extension>
          </line>
          <city value="Solothurn"/>
          <postalCode value="4500"/>
        </address>
      </Organization>
    </resource>
  </entry>
  <entry>
    <fullUrl value="urn:uuid:433afbf5-bf19-4993-8809-24adaab4193b"/>
    <resource>
      <PractitionerRole>
        <id value="433afbf5-bf19-4993-8809-24adaab4193b"/>
        <practitioner>
          <reference value="urn:uuid:84417eb5-1ba3-4406-9504-12d83d7e719c"/>
        </practitioner>
        <organization>
          <reference value="urn:uuid:67319183-8fcc-40db-b88c-e7defd45c20d"/>
        </organization>
      </PractitionerRole>
    </resource>
  </entry>
  <entry>
    <fullUrl value="urn:uuid:f00577b7-1e74-43cf-9830-ca72bdb2e619"/>
    <resource>
      <Specimen>
        <id value="f00577b7-1e74-43cf-9830-ca72bdb2e619"/>
        <type>
          <text value="Material declared by Observation.code or non-mandatory"/>
        </type>
        <subject>
          <reference value="urn:uuid:66d17c6d-5b10-40c9-a2ef-c6aa78577aba"/>
        </subject>
        <collection>
          <collectedDateTime value="2024-08-22T14:20:00+02:00"/>
        </collection>
      </Specimen>
    </resource>
  </entry>
  <entry>
    <fullUrl value="urn:uuid:1736e921-e851-49e9-ac2e-d66ecf8a2485"/>
    <resource>
      <ServiceRequest>
        <id value="1736e921-e851-49e9-ac2e-d66ecf8a2485"/>
        <identifier>
          <value value="26500923622"/>
        </identifier>
        <status value="completed"/>
        <intent value="order"/>
        <code>
          <coding>
            <system value="http://loinc.org"/>
            <code value="20458-6"/>
          </coding>
        </code>
        <subject>
          <reference value="urn:uuid:66d17c6d-5b10-40c9-a2ef-c6aa78577aba"/>
        </subject>
        <requester>
          <reference value="urn:uuid:433afbf5-bf19-4993-8809-24adaab4193b"/>
        </requester>
        <specimen>
          <reference value="urn:uuid:f00577b7-1e74-43cf-9830-ca72bdb2e619"/>
        </specimen>
      </ServiceRequest>
    </resource>
  </entry>
  <entry>
    <fullUrl value="urn:uuid:b0ee488e-8fc6-43d3-96ed-3d7edcdcee54"/>
    <resource>
      <DiagnosticReport>
        <id value="b0ee488e-8fc6-43d3-96ed-3d7edcdcee54"/>
        <extension url="http://hl7.org/fhir/5.0/StructureDefinition/extension-DiagnosticReport.composition">
          <valueReference>
            <reference value="urn:uuid:55bafd86-696b-44cc-853c-621e85e34a47"/>
          </valueReference>
        </extension>
        <identifier>
          <system value="urn:ietf:rfc:3986"/>
          <value value="urn:uuid:3401332d-6012-443f-9690-9331adb23aab"/>
        </identifier>
        <basedOn>
          <reference value="urn:uuid:1736e921-e851-49e9-ac2e-d66ecf8a2485"/>
        </basedOn>
        <status value="final"/>
        <code>
          <coding>
            <system value="http://loinc.org"/>
            <code value="11502-2"/>
            <display value="Laboratory report"/>
          </coding>
        </code>
        <subject>
          <reference value="urn:uuid:66d17c6d-5b10-40c9-a2ef-c6aa78577aba"/>
        </subject>
        <performer>
          <reference value="urn:uuid:a95ea4e2-a7ce-48ef-bd5f-5a90e1c8e285"/>
        </performer>
        <specimen>
          <reference value="urn:uuid:f00577b7-1e74-43cf-9830-ca72bdb2e619"/>
        </specimen>
        <result>
          <reference value="urn:uuid:f57d97fa-c151-47ca-a82f-3c8423b3ca28"/>
        </result>
      </DiagnosticReport>
    </resource>
  </entry>
</Bundle>