<?xml version="1.0" encoding="UTF-8"?>

<Bundle xmlns="http://hl7.org/fhir">
  <id value="56Doc-Trichinella-spiralis"/>
  <identifier>
    <system value="urn:ietf:rfc:3986"/>
    <value value="urn:uuid:54013a2d-6012-443f-9a90-6331adb23aab"/>
  </identifier>
  <type value="document"/>
  <timestamp value="2024-10-20T12:00:00+02:00"/>
  <entry>
    <fullUrl value="urn:uuid:aacebdf8-9efc-4606-af98-ead9453a7a72"/>
    <resource>
      <Composition>
        <id value="aacebdf8-9efc-4606-af98-ead9453a7a72"/>
        <language value="de-CH"/>
        <identifier>
          <system value="urn:ietf:rfc:3986"/>
          <value value="urn:uuid:54013a2d-6012-443f-9a90-6331adb23aab"/>
        </identifier>
        <status value="final"/>
        <type>
          <coding>
            <system value="http://snomed.info/sct"/>
            <version value="http://snomed.info/sct/2011000195101"/>
            <code value="4241000179101"/>
            <display value="Laborbericht"/>
          </coding>
          <coding>
            <system value="http://loinc.org"/>
            <code value="11502-2"/>
            <display value="Laboratory report"/>
          </coding>
        </type>
        <subject>
          <reference value="urn:uuid:bfa34c55-530f-4283-902a-f159a05bffda"/>
        </subject>
        <date value="2024-10-20T12:00:00+02:00"/>
        <author>
          <reference value="urn:uuid:ef0a08b9-b705-479e-b058-835ee9764c21"/>
        </author>
        <title value="Laborbericht vom 20.10.2024"/>
        <section>
          <title value="Analyseergebnisse der mikrobiologischen Untersuchung"/>
          <code>
            <coding>
              <system value="http://loinc.org"/>
              <code value="18725-2"/>
              <display value="Microbiology studies (set)"/>
            </coding>
          </code>
          <entry>
            <reference value="urn:uuid:be91fab9-8969-43f7-bd7b-8ab4b0c04b80"/>
          </entry>
        </section>
      </Composition>
    </resource>
  </entry>
  <entry>
    <fullUrl value="urn:uuid:bfa34c55-530f-4283-902a-f159a05bffda"/>
    <resource>
      <Patient>
        <id value="bfa34c55-530f-4283-902a-f159a05bffda"/>
        <identifier>
          <system value="urn:oid:2.16.756.5.32"/>
          <value value="7561234567897"/>
        </identifier>
        <name>
          <family value="D"/>
          <given value="A"/>
        </name>
        <gender value="female"/>
        <birthDate value="1981-02-07"/>
        <address>
          <use value="home"/>
          <city value="Carouge"/>
          <state value="GE"/>
          <postalCode value="1227"/>
          <country value="CH">
            <extension url="http://hl7.org/fhir/StructureDefinition/iso21090-SC-coding">
              <valueCoding>
                <system value="urn:iso:std:iso:3166"/>
                <code value="CH"/>
              </valueCoding>
            </extension>
          </country>
        </address>
      </Patient>
    </resource>
  </entry>
  <entry>
    <fullUrl value="urn:uuid:ef0a08b9-b705-479e-b058-835ee9764c21"/>
    <resource>
      <Organization>
        <id value="ef0a08b9-b705-479e-b058-835ee9764c21"/>
        <identifier>
          <system value="urn:oid:2.51.1.3"/>
          <value value="7601002331470"/>
        </identifier>
        <name value="SanLab"/>
      </Organization>
    </resource>
  </entry>
  <entry>
    <fullUrl value="urn:uuid:be91fab9-8969-43f7-bd7b-8ab4b0c04b80"/>
    <resource>
      <Observation>
        <id value="be91fab9-8969-43f7-bd7b-8ab4b0c04b80"/>
        <status value="final"/>
        <category>
          <coding>
            <system value="http://terminology.hl7.org/CodeSystem/observation-category"/>
            <code value="laboratory"/>
            <display value="Laboratory"/>
          </coding>
        </category>
        <code>
          <coding>
            <system value="http://loinc.org"/>
            <code value="23499-7"/>
          </coding>
        </code>
        <subject>
          <reference value="urn:uuid:bfa34c55-530f-4283-902a-f159a05bffda"/>
        </subject>
        <effectiveDateTime value="2024-10-19T14:20:00+02:00"/>
        <performer>
          <reference value="urn:uuid:ef0a08b9-b705-479e-b058-835ee9764c21"/>
        </performer>
        <dataAbsentReason>
          <coding>
            <system value="http://terminology.hl7.org/CodeSystem/data-absent-reason"/>
            <code value="not-applicable"/>
          </coding>
        </dataAbsentReason>
        <interpretation>
          <coding>
            <system value="http://terminology.hl7.org/CodeSystem/v3-ObservationInterpretation"/>
            <code value="POS"/>
            <display value="Positive"/>
          </coding>
        </interpretation>
        <specimen>
          <reference value="urn:uuid:0e4052e5-00ec-46e8-a0cf-da5f0af54bcc"/>
        </specimen>
      </Observation>
    </resource>
  </entry>
  <entry>
    <fullUrl value="urn:uuid:0ce29eb7-1b8b-40d2-b857-e70e58ac1f41"/>
    <resource>
      <Practitioner>
        <id value="0ce29eb7-1b8b-40d2-b857-e70e58ac1f41"/>
        <identifier>
          <system value="urn:oid:2.51.1.3"/>
          <value value="7601000000514"/>
        </identifier>
        <name>
          <family value="Hauser"/>
          <given value="Peter"/>
        </name>
        <telecom>
          <system value="phone"/>
          <value value="+41 79 222 33 44"/>
        </telecom>
        <telecom>
          <system value="email"/>
          <value value="peter.hauser@hauserpraxis.ch"/>
        </telecom>
      </Practitioner>
    </resource>
  </entry>
  <entry>
    <fullUrl value="urn:uuid:8844749e-e2ca-4d05-a167-fb63c072d193"/>
    <resource>
      <Organization>
        <id value="8844749e-e2ca-4d05-a167-fb63c072d193"/>
        <identifier>
          <system value="urn:oid:2.16.756.5.45"/>
          <value value="A74966168"/>
        </identifier>
        <name value="Praxis Dr. Hauser"/>
        <address>
          <line value="Hauptstrasse 10">
            <extension url="http://hl7.org/fhir/StructureDefinition/iso21090-ADXP-streetName">
              <valueString value="Hauptstrasse"/>
            </extension>
            <extension url="http://hl7.org/fhir/StructureDefinition/iso21090-ADXP-houseNumber">
              <valueString value="10"/>
            </extension>
          </line>
          <city value="Solothurn"/>
          <postalCode value="4500"/>
        </address>
      </Organization>
    </resource>
  </entry>
  <entry>
    <fullUrl value="urn:uuid:aedb99e1-442f-48d0-bcc9-450810deb857"/>
    <resource>
      <PractitionerRole>
        <id value="aedb99e1-442f-48d0-bcc9-450810deb857"/>
        <practitioner>
          <reference value="urn:uuid:0ce29eb7-1b8b-40d2-b857-e70e58ac1f41"/>
        </practitioner>
        <organization>
          <reference value="urn:uuid:8844749e-e2ca-4d05-a167-fb63c072d193"/>
        </organization>
      </PractitionerRole>
    </resource>
  </entry>
  <entry>
    <fullUrl value="urn:uuid:0e4052e5-00ec-46e8-a0cf-da5f0af54bcc"/>
    <resource>
      <Specimen>
        <id value="0e4052e5-00ec-46e8-a0cf-da5f0af54bcc"/>
        <type>
          <text value="Material declared by Observation.code or non-mandatory"/>
        </type>
        <subject>
          <reference value="urn:uuid:bfa34c55-530f-4283-902a-f159a05bffda"/>
        </subject>
        <collection>
          <collectedDateTime value="2024-10-15T14:20:00+02:00"/>
        </collection>
      </Specimen>
    </resource>
  </entry>
  <entry>
    <fullUrl value="urn:uuid:94910ba2-6893-4a0c-9fbb-90b343efe48a"/>
    <resource>
      <ServiceRequest>
        <id value="94910ba2-6893-4a0c-9fbb-90b343efe48a"/>
        <identifier>
          <value value="26500923675"/>
        </identifier>
        <status value="completed"/>
        <intent value="order"/>
        <code>
          <coding>
            <system value="http://loinc.org"/>
            <code value="23499-7"/>
          </coding>
        </code>
        <subject>
          <reference value="urn:uuid:bfa34c55-530f-4283-902a-f159a05bffda"/>
        </subject>
        <requester>
          <reference value="urn:uuid:aedb99e1-442f-48d0-bcc9-450810deb857"/>
        </requester>
        <specimen>
          <reference value="urn:uuid:0e4052e5-00ec-46e8-a0cf-da5f0af54bcc"/>
        </specimen>
      </ServiceRequest>
    </resource>
  </entry>
  <entry>
    <fullUrl value="urn:uuid:52366089-5bd6-4071-bead-d77663e189ad"/>
    <resource>
      <DiagnosticReport>
        <id value="52366089-5bd6-4071-bead-d77663e189ad"/>
        <extension url="http://hl7.org/fhir/5.0/StructureDefinition/extension-DiagnosticReport.composition">
          <valueReference>
            <reference value="urn:uuid:aacebdf8-9efc-4606-af98-ead9453a7a72"/>
          </valueReference>
        </extension>
        <identifier>
          <system value="urn:ietf:rfc:3986"/>
          <value value="urn:uuid:54013a2d-6012-443f-9a90-6331adb23aab"/>
        </identifier>
        <basedOn>
          <reference value="urn:uuid:94910ba2-6893-4a0c-9fbb-90b343efe48a"/>
        </basedOn>
        <status value="final"/>
        <code>
          <coding>
            <system value="http://loinc.org"/>
            <code value="11502-2"/>
            <display value="Laboratory report"/>
          </coding>
        </code>
        <subject>
          <reference value="urn:uuid:bfa34c55-530f-4283-902a-f159a05bffda"/>
        </subject>
        <performer>
          <reference value="urn:uuid:ef0a08b9-b705-479e-b058-835ee9764c21"/>
        </performer>
        <specimen>
          <reference value="urn:uuid:0e4052e5-00ec-46e8-a0cf-da5f0af54bcc"/>
        </specimen>
        <result>
          <reference value="urn:uuid:be91fab9-8969-43f7-bd7b-8ab4b0c04b80"/>
        </result>
      </DiagnosticReport>
    </resource>
  </entry>
</Bundle>