<?xml version="1.0" encoding="UTF-8"?>

<Bundle xmlns="http://hl7.org/fhir">
  <id value="47Doc-Variola"/>
  <identifier>
    <system value="urn:ietf:rfc:3986"/>
    <value value="urn:uuid:54013a2d-6012-443f-9a90-6331adb23aab"/>
  </identifier>
  <type value="document"/>
  <timestamp value="2024-10-20T12:00:00+02:00"/>
  <entry>
    <fullUrl value="urn:uuid:a7dc60e2-e98e-48eb-b401-8c9420e634fc"/>
    <resource>
      <Composition>
        <id value="a7dc60e2-e98e-48eb-b401-8c9420e634fc"/>
        <language value="de-CH"/>
        <identifier>
          <system value="urn:ietf:rfc:3986"/>
          <value value="urn:uuid:54013a2d-6012-443f-9a90-6331adb23aab"/>
        </identifier>
        <status value="final"/>
        <type>
          <coding>
            <system value="http://snomed.info/sct"/>
            <version value="http://snomed.info/sct/2011000195101"/>
            <code value="4241000179101"/>
            <display value="Laborbericht"/>
          </coding>
          <coding>
            <system value="http://loinc.org"/>
            <code value="11502-2"/>
            <display value="Laboratory report"/>
          </coding>
        </type>
        <subject>
          <reference value="urn:uuid:4a1e9d45-de6f-455f-bc96-9beab22da01b"/>
        </subject>
        <date value="2024-10-20T12:00:00+02:00"/>
        <author>
          <reference value="urn:uuid:477e542c-4711-438d-b7c9-59f7e537014e"/>
        </author>
        <title value="Laborbericht vom 20.10.2024"/>
        <section>
          <title value="Analyseergebnisse der mikrobiologischen Untersuchung"/>
          <code>
            <coding>
              <system value="http://loinc.org"/>
              <code value="18725-2"/>
              <display value="Microbiology studies (set)"/>
            </coding>
          </code>
          <entry>
            <reference value="urn:uuid:bc3f7bbe-85a7-445d-8910-8ff60de0fa1b"/>
          </entry>
        </section>
      </Composition>
    </resource>
  </entry>
  <entry>
    <fullUrl value="urn:uuid:4a1e9d45-de6f-455f-bc96-9beab22da01b"/>
    <resource>
      <Patient>
        <id value="4a1e9d45-de6f-455f-bc96-9beab22da01b"/>
        <identifier>
          <system value="urn:oid:2.16.756.5.32"/>
          <value value="7561234567897"/>
        </identifier>
        <name>
          <family value="Dupont"/>
          <given value="Antoine"/>
        </name>
        <gender value="female"/>
        <birthDate value="1981-02-07"/>
        <address>
          <use value="home"/>
          <line value="rue de la république 10">
            <extension url="http://hl7.org/fhir/StructureDefinition/iso21090-ADXP-streetName">
              <valueString value="rue de la république"/>
            </extension>
            <extension url="http://hl7.org/fhir/StructureDefinition/iso21090-ADXP-houseNumber">
              <valueString value="10"/>
            </extension>
          </line>
          <city value="Carouge"/>
          <state value="GE"/>
          <postalCode value="1227"/>
          <country value="CH">
            <extension url="http://hl7.org/fhir/StructureDefinition/iso21090-SC-coding">
              <valueCoding>
                <system value="urn:iso:std:iso:3166"/>
                <code value="CH"/>
              </valueCoding>
            </extension>
          </country>
        </address>
      </Patient>
    </resource>
  </entry>
  <entry>
    <fullUrl value="urn:uuid:477e542c-4711-438d-b7c9-59f7e537014e"/>
    <resource>
      <Organization>
        <id value="477e542c-4711-438d-b7c9-59f7e537014e"/>
        <identifier>
          <system value="urn:oid:2.51.1.3"/>
          <value value="7601002331470"/>
        </identifier>
        <name value="SanLab"/>
      </Organization>
    </resource>
  </entry>
  <entry>
    <fullUrl value="urn:uuid:bc3f7bbe-85a7-445d-8910-8ff60de0fa1b"/>
    <resource>
      <Observation>
        <id value="bc3f7bbe-85a7-445d-8910-8ff60de0fa1b"/>
        <status value="final"/>
        <category>
          <coding>
            <system value="http://terminology.hl7.org/CodeSystem/observation-category"/>
            <code value="laboratory"/>
            <display value="Laboratory"/>
          </coding>
        </category>
        <code>
          <coding>
            <system value="http://loinc.org"/>
            <code value="41856-6"/>
          </coding>
        </code>
        <subject>
          <reference value="urn:uuid:4a1e9d45-de6f-455f-bc96-9beab22da01b"/>
        </subject>
        <effectiveDateTime value="2024-10-19T14:20:00+02:00"/>
        <performer>
          <reference value="urn:uuid:477e542c-4711-438d-b7c9-59f7e537014e"/>
        </performer>
        <dataAbsentReason>
          <coding>
            <system value="http://terminology.hl7.org/CodeSystem/data-absent-reason"/>
            <code value="not-applicable"/>
          </coding>
        </dataAbsentReason>
        <interpretation>
          <coding>
            <system value="http://terminology.hl7.org/CodeSystem/v3-ObservationInterpretation"/>
            <code value="POS"/>
            <display value="Positive"/>
          </coding>
        </interpretation>
        <specimen>
          <reference value="urn:uuid:e5c7834d-4122-4116-a3c7-f733850c2f02"/>
        </specimen>
      </Observation>
    </resource>
  </entry>
  <entry>
    <fullUrl value="urn:uuid:672b3778-70ac-4281-8525-28b616815da8"/>
    <resource>
      <Practitioner>
        <id value="672b3778-70ac-4281-8525-28b616815da8"/>
        <identifier>
          <system value="urn:oid:2.51.1.3"/>
          <value value="7601000000514"/>
        </identifier>
        <name>
          <family value="Hauser"/>
          <given value="Peter"/>
        </name>
        <telecom>
          <system value="phone"/>
          <value value="+41 79 222 33 44"/>
        </telecom>
        <telecom>
          <system value="email"/>
          <value value="peter.hauser@hauserpraxis.ch"/>
        </telecom>
      </Practitioner>
    </resource>
  </entry>
  <entry>
    <fullUrl value="urn:uuid:c5d7cb3a-9529-462d-8473-8ea7519c1a5c"/>
    <resource>
      <Organization>
        <id value="c5d7cb3a-9529-462d-8473-8ea7519c1a5c"/>
        <identifier>
          <system value="urn:oid:2.16.756.5.45"/>
          <value value="A74966168"/>
        </identifier>
        <name value="Praxis Dr. Hauser"/>
        <address>
          <line value="Hauptstrasse 10">
            <extension url="http://hl7.org/fhir/StructureDefinition/iso21090-ADXP-streetName">
              <valueString value="Hauptstrasse"/>
            </extension>
            <extension url="http://hl7.org/fhir/StructureDefinition/iso21090-ADXP-houseNumber">
              <valueString value="10"/>
            </extension>
          </line>
          <city value="Solothurn"/>
          <postalCode value="4500"/>
        </address>
      </Organization>
    </resource>
  </entry>
  <entry>
    <fullUrl value="urn:uuid:a24800e1-9554-4855-96bd-690640b61635"/>
    <resource>
      <PractitionerRole>
        <id value="a24800e1-9554-4855-96bd-690640b61635"/>
        <practitioner>
          <reference value="urn:uuid:672b3778-70ac-4281-8525-28b616815da8"/>
        </practitioner>
        <organization>
          <reference value="urn:uuid:c5d7cb3a-9529-462d-8473-8ea7519c1a5c"/>
        </organization>
      </PractitionerRole>
    </resource>
  </entry>
  <entry>
    <fullUrl value="urn:uuid:e5c7834d-4122-4116-a3c7-f733850c2f02"/>
    <resource>
      <Specimen>
        <id value="e5c7834d-4122-4116-a3c7-f733850c2f02"/>
        <type>
          <text value="Material declared by Observation.code or non-mandatory"/>
        </type>
        <subject>
          <reference value="urn:uuid:4a1e9d45-de6f-455f-bc96-9beab22da01b"/>
        </subject>
        <collection>
          <collectedDateTime value="2024-10-15T14:20:00+02:00"/>
        </collection>
      </Specimen>
    </resource>
  </entry>
  <entry>
    <fullUrl value="urn:uuid:691b3891-0bb4-4707-8e95-d52293bef193"/>
    <resource>
      <ServiceRequest>
        <id value="691b3891-0bb4-4707-8e95-d52293bef193"/>
        <identifier>
          <value value="26500923675"/>
        </identifier>
        <status value="completed"/>
        <intent value="order"/>
        <code>
          <coding>
            <system value="http://loinc.org"/>
            <code value="41856-6"/>
          </coding>
        </code>
        <subject>
          <reference value="urn:uuid:4a1e9d45-de6f-455f-bc96-9beab22da01b"/>
        </subject>
        <requester>
          <reference value="urn:uuid:a24800e1-9554-4855-96bd-690640b61635"/>
        </requester>
        <specimen>
          <reference value="urn:uuid:e5c7834d-4122-4116-a3c7-f733850c2f02"/>
        </specimen>
      </ServiceRequest>
    </resource>
  </entry>
  <entry>
    <fullUrl value="urn:uuid:6ecb284b-26a8-49e5-9033-a1876cbcff51"/>
    <resource>
      <DiagnosticReport>
        <id value="6ecb284b-26a8-49e5-9033-a1876cbcff51"/>
        <extension url="http://hl7.org/fhir/5.0/StructureDefinition/extension-DiagnosticReport.composition">
          <valueReference>
            <reference value="urn:uuid:a7dc60e2-e98e-48eb-b401-8c9420e634fc"/>
          </valueReference>
        </extension>
        <identifier>
          <system value="urn:ietf:rfc:3986"/>
          <value value="urn:uuid:54013a2d-6012-443f-9a90-6331adb23aab"/>
        </identifier>
        <basedOn>
          <reference value="urn:uuid:691b3891-0bb4-4707-8e95-d52293bef193"/>
        </basedOn>
        <status value="final"/>
        <code>
          <coding>
            <system value="http://loinc.org"/>
            <code value="11502-2"/>
            <display value="Laboratory report"/>
          </coding>
        </code>
        <subject>
          <reference value="urn:uuid:4a1e9d45-de6f-455f-bc96-9beab22da01b"/>
        </subject>
        <performer>
          <reference value="urn:uuid:477e542c-4711-438d-b7c9-59f7e537014e"/>
        </performer>
        <specimen>
          <reference value="urn:uuid:e5c7834d-4122-4116-a3c7-f733850c2f02"/>
        </specimen>
        <result>
          <reference value="urn:uuid:bc3f7bbe-85a7-445d-8910-8ff60de0fa1b"/>
        </result>
      </DiagnosticReport>
    </resource>
  </entry>
</Bundle>