<?xml version="1.0" encoding="UTF-8"?>

<Bundle xmlns="http://hl7.org/fhir">
  <id value="12Doc-Mpox"/>
  <identifier>
    <system value="urn:ietf:rfc:3986"/>
    <value value="urn:uuid:1901332d-6041-443f-9690-9291adb2cb3b"/>
  </identifier>
  <type value="document"/>
  <timestamp value="2024-04-28T07:35:00+02:00"/>
  <entry>
    <fullUrl value="urn:uuid:6717fa1a-b956-4bd6-b8c0-e87ef1a2feae"/>
    <resource>
      <Composition>
        <id value="6717fa1a-b956-4bd6-b8c0-e87ef1a2feae"/>
        <language value="de-CH"/>
        <identifier>
          <system value="urn:ietf:rfc:3986"/>
          <value value="urn:uuid:1901332d-6041-443f-9690-9291adb2cb3b"/>
        </identifier>
        <status value="final"/>
        <type>
          <coding>
            <system value="http://snomed.info/sct"/>
            <version value="http://snomed.info/sct/2011000195101"/>
            <code value="4241000179101"/>
            <display value="Laborbericht"/>
          </coding>
          <coding>
            <system value="http://loinc.org"/>
            <code value="11502-2"/>
            <display value="Laboratory report"/>
          </coding>
        </type>
        <subject>
          <reference value="urn:uuid:32b29a6f-ab97-4c45-8723-ba4cb483dc99"/>
        </subject>
        <date value="2024-04-28T07:35:00+02:00"/>
        <author>
          <reference value="urn:uuid:303b7804-6c75-45d8-a39e-cdf346dcc8f0"/>
        </author>
        <title value="Laborbericht vom 28.04.2024"/>
        <section>
          <title value="Analyseergebnisse der mikrobiologischen Untersuchung"/>
          <code>
            <coding>
              <system value="http://loinc.org"/>
              <code value="18725-2"/>
              <display value="Microbiology studies (set)"/>
            </coding>
          </code>
          <entry>
            <reference value="urn:uuid:1cd304d3-0b82-487e-9f6e-a8a0f559cf96"/>
          </entry>
        </section>
      </Composition>
    </resource>
  </entry>
  <entry>
    <fullUrl value="urn:uuid:32b29a6f-ab97-4c45-8723-ba4cb483dc99"/>
    <resource>
      <Patient>
        <id value="32b29a6f-ab97-4c45-8723-ba4cb483dc99"/>
        <identifier>
          <system value="urn:oid:2.16.756.5.32"/>
          <value value="7561733446723"/>
        </identifier>
        <name>
          <family value="Frida"/>
          <given value="Hildetter"/>
        </name>
        <gender value="female"/>
        <birthDate value="1985-10-17"/>
        <address>
          <use value="home"/>
          <line value="Bahnhofstrasse 27"/>
          <city value="Derendingen"/>
          <state value="SO"/>
          <postalCode value="4552"/>
          <country value="CH">
            <extension url="http://hl7.org/fhir/StructureDefinition/iso21090-SC-coding">
              <valueCoding>
                <system value="urn:iso:std:iso:3166"/>
                <code value="CH"/>
              </valueCoding>
            </extension>
          </country>
        </address>
      </Patient>
    </resource>
  </entry>
  <entry>
    <fullUrl value="urn:uuid:303b7804-6c75-45d8-a39e-cdf346dcc8f0"/>
    <resource>
      <Organization>
        <id value="303b7804-6c75-45d8-a39e-cdf346dcc8f0"/>
        <identifier>
          <system value="urn:oid:2.51.1.3"/>
          <value value="7601002331470"/>
        </identifier>
        <name value="SanLab"/>
      </Organization>
    </resource>
  </entry>
  <entry>
    <fullUrl value="urn:uuid:1cd304d3-0b82-487e-9f6e-a8a0f559cf96"/>
    <resource>
      <Observation>
        <id value="1cd304d3-0b82-487e-9f6e-a8a0f559cf96"/>
        <status value="final"/>
        <category>
          <coding>
            <system value="http://terminology.hl7.org/CodeSystem/observation-category"/>
            <code value="laboratory"/>
            <display value="Laboratory"/>
          </coding>
        </category>
        <code>
          <coding>
            <system value="http://loinc.org"/>
            <code value="100383-9"/>
          </coding>
        </code>
        <subject>
          <reference value="urn:uuid:32b29a6f-ab97-4c45-8723-ba4cb483dc99"/>
        </subject>
        <effectiveDateTime value="2024-04-28T07:35:00+02:00"/>
        <performer>
          <reference value="urn:uuid:303b7804-6c75-45d8-a39e-cdf346dcc8f0"/>
        </performer>
        <valueCodeableConcept>
          <coding>
            <system value="http://snomed.info/sct"/>
            <code value="10828004"/>
            <display value="Positive (qualifier value)"/>
          </coding>
        </valueCodeableConcept>
        <interpretation>
          <coding>
            <system value="http://terminology.hl7.org/CodeSystem/v3-ObservationInterpretation"/>
            <code value="POS"/>
            <display value="Positive"/>
          </coding>
        </interpretation>
        <specimen>
          <reference value="urn:uuid:d227ca5e-e23c-4050-8665-a2bd6f76800a"/>
        </specimen>
      </Observation>
    </resource>
  </entry>
  <entry>
    <fullUrl value="urn:uuid:2c53a0df-005a-4893-b871-f3ee909dd399"/>
    <resource>
      <Practitioner>
        <id value="2c53a0df-005a-4893-b871-f3ee909dd399"/>
        <identifier>
          <system value="urn:oid:2.51.1.3"/>
          <value value="7601000234438"/>
        </identifier>
        <name>
          <family value="Giacometti"/>
          <given value="Monika"/>
        </name>
        <telecom>
          <system value="phone"/>
          <value value="+41 79 111 44 55"/>
        </telecom>
        <telecom>
          <system value="email"/>
          <value value="m.giacometti@ks-abc.ch"/>
        </telecom>
      </Practitioner>
    </resource>
  </entry>
  <entry>
    <fullUrl value="urn:uuid:4195fa92-9cdf-4e6e-9ba1-34aae1682ffd"/>
    <resource>
      <Organization>
        <id value="4195fa92-9cdf-4e6e-9ba1-34aae1682ffd"/>
        <identifier>
          <system value="urn:oid:2.16.756.5.45"/>
          <value value="A99684215"/>
        </identifier>
        <name value="Kantonsspital ABC"/>
        <address>
          <line value="Aortastrasse 22">
            <extension url="http://hl7.org/fhir/StructureDefinition/iso21090-ADXP-streetName">
              <valueString value="Aortastrasse"/>
            </extension>
            <extension url="http://hl7.org/fhir/StructureDefinition/iso21090-ADXP-houseNumber">
              <valueString value="22"/>
            </extension>
            <extension url="http://hl7.org/fhir/StructureDefinition/iso21090-ADXP-postBox">
              <valueString value="Postfach 18"/>
            </extension>
          </line>
          <city value="Bern"/>
          <postalCode value="3000"/>
        </address>
      </Organization>
    </resource>
  </entry>
  <entry>
    <fullUrl value="urn:uuid:d4ea3b36-8343-4899-af79-c5426533d8db"/>
    <resource>
      <PractitionerRole>
        <id value="d4ea3b36-8343-4899-af79-c5426533d8db"/>
        <practitioner>
          <reference value="urn:uuid:2c53a0df-005a-4893-b871-f3ee909dd399"/>
        </practitioner>
        <organization>
          <reference value="urn:uuid:4195fa92-9cdf-4e6e-9ba1-34aae1682ffd"/>
        </organization>
      </PractitionerRole>
    </resource>
  </entry>
  <entry>
    <fullUrl value="urn:uuid:d227ca5e-e23c-4050-8665-a2bd6f76800a"/>
    <resource>
      <Specimen>
        <id value="d227ca5e-e23c-4050-8665-a2bd6f76800a"/>
        <type>
          <coding>
            <system value="http://snomed.info/sct"/>
            <code value="608969007"/>
          </coding>
        </type>
        <subject>
          <reference value="urn:uuid:32b29a6f-ab97-4c45-8723-ba4cb483dc99"/>
        </subject>
        <collection>
          <collectedDateTime value="2024-04-26"/>
        </collection>
      </Specimen>
    </resource>
  </entry>
  <entry>
    <fullUrl value="urn:uuid:4fbc55a0-588e-4f9f-8170-d5f61160e5aa"/>
    <resource>
      <ServiceRequest>
        <id value="4fbc55a0-588e-4f9f-8170-d5f61160e5aa"/>
        <identifier>
          <value value="26955847714"/>
        </identifier>
        <status value="completed"/>
        <intent value="order"/>
        <code>
          <coding>
            <system value="http://loinc.org"/>
            <code value="100383-9"/>
          </coding>
        </code>
        <subject>
          <reference value="urn:uuid:32b29a6f-ab97-4c45-8723-ba4cb483dc99"/>
        </subject>
        <requester>
          <reference value="urn:uuid:d4ea3b36-8343-4899-af79-c5426533d8db"/>
        </requester>
        <specimen>
          <reference value="urn:uuid:d227ca5e-e23c-4050-8665-a2bd6f76800a"/>
        </specimen>
      </ServiceRequest>
    </resource>
  </entry>
  <entry>
    <fullUrl value="urn:uuid:ec48f270-f518-45c3-8e6d-4dde446a8821"/>
    <resource>
      <DiagnosticReport>
        <id value="ec48f270-f518-45c3-8e6d-4dde446a8821"/>
        <extension url="http://hl7.org/fhir/5.0/StructureDefinition/extension-DiagnosticReport.composition">
          <valueReference>
            <reference value="urn:uuid:6717fa1a-b956-4bd6-b8c0-e87ef1a2feae"/>
          </valueReference>
        </extension>
        <identifier>
          <system value="urn:ietf:rfc:3986"/>
          <value value="urn:uuid:1901332d-6041-443f-9690-9291adb2cb3b"/>
        </identifier>
        <basedOn>
          <reference value="urn:uuid:4fbc55a0-588e-4f9f-8170-d5f61160e5aa"/>
        </basedOn>
        <status value="final"/>
        <code>
          <coding>
            <system value="http://loinc.org"/>
            <code value="11502-2"/>
            <display value="Laboratory report"/>
          </coding>
        </code>
        <subject>
          <reference value="urn:uuid:32b29a6f-ab97-4c45-8723-ba4cb483dc99"/>
        </subject>
        <performer>
          <reference value="urn:uuid:303b7804-6c75-45d8-a39e-cdf346dcc8f0"/>
        </performer>
        <specimen>
          <reference value="urn:uuid:d227ca5e-e23c-4050-8665-a2bd6f76800a"/>
        </specimen>
        <result>
          <reference value="urn:uuid:1cd304d3-0b82-487e-9f6e-a8a0f559cf96"/>
        </result>
      </DiagnosticReport>
    </resource>
  </entry>
</Bundle>