<?xml version="1.0" encoding="UTF-8"?>

<Bundle xmlns="http://hl7.org/fhir">
  <id value="DocumentEtoc"/>
  <meta>
    <profile value="http://fhir.ch/ig/ch-etoc/StructureDefinition/ch-etoc-document"/>
  </meta>
  <identifier>
    <system value="urn:ietf:rfc:3986"/>
    <value value="urn:uuid:26d3dff7-ab05-4737-a49c-5eccd33595f7"/>
  </identifier>
  <type value="document"/>
  <timestamp value="2019-04-01T20:18:41.341+00:00"/>
  <entry>
    <fullUrl value="http://example.com/fhir/Composition/CompositionEtoc"/>
    <resource>
      <Composition>
        <id value="CompositionEtoc"/>
        <meta>
          <profile value="http://fhir.ch/ig/ch-etoc/StructureDefinition/ch-etoc-composition"/>
        </meta>
        <text>
          <status value="additional"/><div xmlns="http://www.w3.org/1999/xhtml"><div>Medical Referral</div></div>
        </text>
        <extension url="http://fhir.ch/ig/ch-core/StructureDefinition/ch-ext-epr-dataenterer">
          <extension url="enterer">
            <valueReference>
              <reference value="PractitionerRole/DAtaentererHappyDoctors"/>
            </valueReference>
          </extension>
        </extension>
        <extension url="http://fhir.ch/ig/ch-orf/StructureDefinition/ch-orf-receiver">
          <valueReference>
            <reference value="PractitionerRole/MedicalDepartmentHappyHospital"/>
          </valueReference>
        </extension>
        <extension url="http://fhir.ch/ig/ch-orf/StructureDefinition/ch-orf-copyreceiver">
          <valueReference>
            <reference value="Patient/SUffererCopyReceiver"/>
          </valueReference>
        </extension>
        <status value="final"/>
        <type>
          <coding>
            <system value="http://snomed.info/sct"/>
            <code value="419891008"/>
            <display value="Nicht n&#xE4;her bezeichnetes Dokument"/>
          </coding>
        </type>
        <category>
          <coding>
            <system value="http://snomed.info/sct"/>
            <code value="721927009"/>
            <display value="Zuweisungsschreiben"/>
          </coding>
        </category>
        <subject>
          <reference value="Patient/SUfferer"/>
        </subject>
        <date value="2019-04-01T20:18:41.341+00:00"/>
        <author>
          <reference value="PractitionerRole/ORderplacerHappyDoctors"/>
        </author>
        <title value="Anmeldung zur Abkl&#xE4;rung / Hospitalisation"/>
        <section>
          <title value="Order-Referral"/>
          <code>
            <coding>
              <system value="http://loinc.org"/>
              <code value="93037-0"/>
              <display value="Portable medical order form"/>
            </coding>
          </code>
          <entry>
            <reference value="Questionnaire/QuestionnaireEtoc"/>
          </entry>
          <entry>
            <reference value="QuestionnaireResponse/QuestionnaireResponseEtoc"/>
          </entry>
          <entry>
            <reference value="ServiceRequest/ServiceRequestEtoc"/>
          </entry>
        </section>
      </Composition>
    </resource>
  </entry>
  <entry>
    <fullUrl value="http://example.com/fhir/Questionnaire/QuestionnaireEtoc"/>
    <resource>
      <Questionnaire>
        <id value="QuestionnaireEtoc"/>
        <meta>
          <profile value="http://fhir.ch/ig/ch-orf/StructureDefinition/ch-orf-questionnaire"/>
          <profile value="http://hl7.org/fhir/uv/sdc/StructureDefinition/sdc-questionnaire"/>
          <profile value="http://hl7.org/fhir/uv/sdc/StructureDefinition/sdc-questionnaire-extract"/>
        </meta>
        <text>
          <status value="extensions"/><div xmlns="http://www.w3.org/1999/xhtml"><p><b>Generated Narrative</b></p><p><b>Target structure map</b>: <a href="http://fhir.ch/ig/ch-etoc/StructureMap/RadOrderQrToBundle">http://fhir.ch/ig/ch-etoc/StructureMap/RadOrderQrToBundle</a></p><p><b>Source structure map</b>: <a href="http://fhir.ch/ig/ch-orf/StructureMap/OrfPrepopBundleToQr">http://fhir.ch/ig/ch-orf/StructureMap/OrfPrepopBundleToQr</a></p><blockquote><p><b>Launch context resources</b></p><h3>Urls</h3><table class="grid"><tr><td>-</td></tr><tr><td>*</td></tr></table><p><b>value</b>: Bundle</p><h3>Urls</h3><table class="grid"><tr><td>-</td></tr><tr><td>*</td></tr></table><p><b>value</b>: Bundle</p><h3>Urls</h3><table class="grid"><tr><td>-</td></tr><tr><td>*</td></tr></table><p><b>value</b>: The Bundle that is to be used to pre-populate the form</p></blockquote><p><b>url</b>: <code>http://fhir.ch/ig/ch-etoc/Questionnaire/QuestionnaireEtoc</code></p><p><b>name</b>: QuestionnaireEtoc</p><p><b>title</b>: Questionnaire Electronic Transition of Carer</p><p><b>derivedFrom</b>: <a href="http://fhir.ch/ig/ch-orf/StructureDefinition/ch-orf-questionnaire">http://fhir.ch/ig/ch-orf/StructureDefinition/ch-orf-questionnaire</a></p><p><b>status</b>: active</p><p><b>subjectType</b>: Patient</p><p><b>date</b>: 2021-02-24</p><p><b>publisher</b>: HL7 Switzerland</p><blockquote><p><b>item</b></p><p><b>linkId</b>: order</p><p><b>definition</b>: <a href="http://fhir.ch/ig/ch-etoc/StructureDefinition/ch-etoc-document#Bundle">http://fhir.ch/ig/ch-etoc/StructureDefinition/ch-etoc-document#Bundle</a></p><p><b>text</b>: Auftrag</p><p><b>type</b>: group</p><p><b>required</b>: true</p><blockquote><p><b>item</b></p><p><b>linkId</b>: order.title</p><p><b>definition</b>: <a href="http://fhir.ch/ig/ch-etoc/StructureDefinition/ch-etoc-composition#Composition.title">http://fhir.ch/ig/ch-etoc/StructureDefinition/ch-etoc-composition#Composition.title</a></p><p><b>text</b>: Titel</p><p><b>type</b>: string</p><p><b>required</b>: true</p><p><b>readOnly</b>: true</p></blockquote><blockquote><p><b>item</b></p><p><b>linkId</b>: order.type</p><p><b>definition</b>: <a href="http://fhir.ch/ig/ch-etoc/StructureDefinition/ch-etoc-composition#Composition.type">http://fhir.ch/ig/ch-etoc/StructureDefinition/ch-etoc-composition#Composition.type</a></p><p><b>text</b>: Typ</p><p><b>type</b>: choice</p><p><b>required</b>: true</p><p><b>readOnly</b>: true</p><p><b>answerValueSet</b>: <a href="http://fhir.ch/ig/ch-epr-term/ValueSet/DocumentEntry.typeCode">http://fhir.ch/ig/ch-epr-term/ValueSet/DocumentEntry.typeCode</a></p></blockquote><blockquote><p><b>item</b></p><p><b>linkId</b>: order.category</p><p><b>definition</b>: <a href="http://fhir.ch/ig/ch-etoc/StructureDefinition/ch-etoc-composition#Composition.category">http://fhir.ch/ig/ch-etoc/StructureDefinition/ch-etoc-composition#Composition.category</a></p><p><b>text</b>: Kategorie</p><p><b>type</b>: choice</p><p><b>required</b>: true</p><p><b>readOnly</b>: true</p><p><b>answerValueSet</b>: <a href="http://fhir.ch/ig/ch-epr-term/ValueSet/DocumentEntry.classCode">http://fhir.ch/ig/ch-epr-term/ValueSet/DocumentEntry.classCode</a></p></blockquote><blockquote><p><b>item</b></p><p><b>linkId</b>: order.placerOrderIdentifier</p><p><b>definition</b>: <a href="http://fhir.ch/ig/ch-etoc/StructureDefinition/ch-etoc-servicerequest#ServiceRequest.identifier:placerOrderIdentifier.value">http://fhir.ch/ig/ch-etoc/StructureDefinition/ch-etoc-servicerequest#ServiceRequest.identifier:placerOrderIdentifier.value</a></p><p><b>text</b>: Auftragsnummer des Auftraggebers</p><p><b>type</b>: string</p><p><b>required</b>: true</p></blockquote><blockquote><p><b>item</b></p><p><b>hidden</b>: true</p><p><b>linkId</b>: order.placerOrderIdentifierDomain</p><p><b>definition</b>: <a href="http://fhir.ch/ig/ch-etoc/StructureDefinition/ch-etoc-servicerequest#ServiceRequest.identifier:placerOrderIdentifier.system">http://fhir.ch/ig/ch-etoc/StructureDefinition/ch-etoc-servicerequest#ServiceRequest.identifier:placerOrderIdentifier.system</a></p><p><b>text</b>: Identifier Domain der Auftragsnummer des Auftraggebers</p><p><b>type</b>: string</p><p><b>required</b>: true</p></blockquote><blockquote><p><b>item</b></p><p><b>linkId</b>: order.fillerOrderIdentifier</p><p><b>definition</b>: <a href="http://fhir.ch/ig/ch-etoc/StructureDefinition/ch-etoc-servicerequest#ServiceRequest.identifier:fillerOrderIdentifier.value">http://fhir.ch/ig/ch-etoc/StructureDefinition/ch-etoc-servicerequest#ServiceRequest.identifier:fillerOrderIdentifier.value</a></p><p><b>text</b>: Auftragsnummer des Auftragsempfängers</p><p><b>type</b>: string</p></blockquote><blockquote><p><b>item</b></p><p><b>hidden</b>: true</p><p><b>linkId</b>: order.fillerOrderIdentifierDomain</p><p><b>definition</b>: <a href="http://fhir.ch/ig/ch-etoc/StructureDefinition/ch-etoc-servicerequest#ServiceRequest.identifier:fillerOrderIdentifier.system">http://fhir.ch/ig/ch-etoc/StructureDefinition/ch-etoc-servicerequest#ServiceRequest.identifier:fillerOrderIdentifier.system</a></p><p><b>text</b>: Identifier Domain der Auftragsnummer des Auftragsempfängers</p><p><b>type</b>: string</p></blockquote><blockquote><p><b>item</b></p><p><b>hidden</b>: true</p><p><b>linkId</b>: order.precedentDocumentIdentifier</p><p><b>definition</b>: <a href="http://fhir.ch/ig/ch-etoc/StructureDefinition/ch-etoc-composition#Composition.extension:precedentDocument">http://fhir.ch/ig/ch-etoc/StructureDefinition/ch-etoc-composition#Composition.extension:precedentDocument</a></p><p><b>text</b>: Identifier des Vorgängerdokuments</p><p><b>type</b>: string</p></blockquote><blockquote><p><b>item</b></p><p><b>linkId</b>: order.notificationContactDocument</p><p><b>definition</b>: <a href="http://fhir.ch/ig/ch-etoc/StructureDefinition/ch-etoc-composition#Composition.extension:urgentNoficationContactForThisDocument">http://fhir.ch/ig/ch-etoc/StructureDefinition/ch-etoc-composition#Composition.extension:urgentNoficationContactForThisDocument</a></p><p><b>text</b>: Dringender Benachrichtigungskontakt für dieses Dokument</p><p><b>type</b>: group</p><h3>Items</h3><table class="grid"><tr><td>-</td></tr><tr><td>*</td></tr></table></blockquote><blockquote><p><b>item</b></p><p><b>linkId</b>: order.notificationContactDocumentResponse</p><p><b>definition</b>: <a href="http://fhir.ch/ig/ch-etoc/StructureDefinition/ch-etoc-composition#Composition.extension:urgentNoficationContactForTheResponseToThisDocument">http://fhir.ch/ig/ch-etoc/StructureDefinition/ch-etoc-composition#Composition.extension:urgentNoficationContactForTheResponseToThisDocument</a></p><p><b>text</b>: Dringender Benachrichtigungskontakt für die Antwort auf dieses Dokument</p><p><b>type</b>: group</p><h3>Items</h3><table class="grid"><tr><td>-</td></tr><tr><td>*</td></tr></table></blockquote><blockquote><p><b>item</b></p><p><b>linkId</b>: order.priority</p><p><b>definition</b>: <a href="http://fhir.ch/ig/ch-etoc/StructureDefinition/ch-etoc-servicerequest#ServiceRequest.priority">http://fhir.ch/ig/ch-etoc/StructureDefinition/ch-etoc-servicerequest#ServiceRequest.priority</a></p><p><b>text</b>: Auftragspriorität</p><p><b>type</b>: choice</p><h3>AnswerOptions</h3><table class="grid"><tr><td>-</td></tr><tr><td>*</td></tr><tr><td>*</td></tr><tr><td>*</td></tr><tr><td>*</td></tr></table></blockquote></blockquote><blockquote><p><b>item</b></p><p><b>linkId</b>: patient</p><p><b>definition</b>: <a href="http://fhir.ch/ig/ch-etoc/StructureDefinition/ch-etoc-composition#Composition.subject">http://fhir.ch/ig/ch-etoc/StructureDefinition/ch-etoc-composition#Composition.subject</a></p><p><b>text</b>: Patient</p><p><b>type</b>: group</p><blockquote><p><b>item</b></p><p><b>linkId</b>: patient.familyName</p><p><b>definition</b>: <a href="http://fhir.ch/ig/ch-core/StructureDefinition/ch-core-patient#Patient.name.family">http://fhir.ch/ig/ch-core/StructureDefinition/ch-core-patient#Patient.name.family</a></p><p><b>text</b>: Name</p><p><b>type</b>: string</p></blockquote><blockquote><p><b>item</b></p><p><b>linkId</b>: patient.maidenName</p><p><b>definition</b>: <a href="http://fhir.ch/ig/ch-core/StructureDefinition/ch-core-patient#Patient.name.family">http://fhir.ch/ig/ch-core/StructureDefinition/ch-core-patient#Patient.name.family</a></p><p><b>text</b>: Ledigname</p><p><b>type</b>: string</p></blockquote><blockquote><p><b>item</b></p><p><b>linkId</b>: patient.givenName</p><p><b>definition</b>: <a href="http://fhir.ch/ig/ch-core/StructureDefinition/ch-core-patient#Patient.name.given">http://fhir.ch/ig/ch-core/StructureDefinition/ch-core-patient#Patient.name.given</a></p><p><b>text</b>: Vorname</p><p><b>type</b>: string</p></blockquote><blockquote><p><b>item</b></p><p><b>linkId</b>: patient.localPid</p><p><b>definition</b>: <a href="http://fhir.ch/ig/ch-core/StructureDefinition/ch-core-patient#Patient.identifier:LocalPid.value">http://fhir.ch/ig/ch-core/StructureDefinition/ch-core-patient#Patient.identifier:LocalPid.value</a></p><p><b>text</b>: Lokale Patienten-ID</p><p><b>type</b>: string</p></blockquote><blockquote><p><b>item</b></p><p><b>hidden</b>: true</p><p><b>linkId</b>: patient.localPidDomain</p><p><b>definition</b>: <a href="http://fhir.ch/ig/ch-core/StructureDefinition/ch-core-patient#Patient.identifier:LocalPid.system">http://fhir.ch/ig/ch-core/StructureDefinition/ch-core-patient#Patient.identifier:LocalPid.system</a></p><p><b>text</b>: Lokale Patienten-ID Domain</p><p><b>type</b>: string</p></blockquote><blockquote><p><b>item</b></p><p><b>linkId</b>: patient.birthDate</p><p><b>definition</b>: <a href="http://fhir.ch/ig/ch-core/StructureDefinition/ch-core-patient#Patient.birthDate">http://fhir.ch/ig/ch-core/StructureDefinition/ch-core-patient#Patient.birthDate</a></p><p><b>text</b>: Geburtsdatum</p><p><b>type</b>: date</p></blockquote><blockquote><p><b>item</b></p><p><b>linkId</b>: patient.gender</p><p><b>definition</b>: <a href="http://fhir.ch/ig/ch-core/StructureDefinition/ch-core-patient#Patient.gender">http://fhir.ch/ig/ch-core/StructureDefinition/ch-core-patient#Patient.gender</a></p><p><b>text</b>: Geschlecht</p><p><b>type</b>: choice</p><h3>AnswerOptions</h3><table class="grid"><tr><td>-</td></tr><tr><td>*</td></tr><tr><td>*</td></tr><tr><td>*</td></tr></table></blockquote><blockquote><p><b>item</b></p><p><b>linkId</b>: patient.phone</p><p><b>definition</b>: <a href="http://fhir.ch/ig/ch-core/StructureDefinition/ch-core-patient#Patient.telecom.value">http://fhir.ch/ig/ch-core/StructureDefinition/ch-core-patient#Patient.telecom.value</a></p><p><b>text</b>: Telefon</p><p><b>type</b>: string</p><p><b>repeats</b>: true</p></blockquote><blockquote><p><b>item</b></p><p><b>linkId</b>: patient.email</p><p><b>definition</b>: <a href="http://fhir.ch/ig/ch-core/StructureDefinition/ch-core-patient#Patient.telecom.value">http://fhir.ch/ig/ch-core/StructureDefinition/ch-core-patient#Patient.telecom.value</a></p><p><b>text</b>: E-Mail</p><p><b>type</b>: string</p></blockquote><blockquote><p><b>item</b></p><p><b>linkId</b>: patient.streetAddressLine</p><p><b>definition</b>: <a href="http://fhir.ch/ig/ch-core/StructureDefinition/ch-core-patient#Patient.address.line">http://fhir.ch/ig/ch-core/StructureDefinition/ch-core-patient#Patient.address.line</a></p><p><b>text</b>: Strasse, Hausnummer, Postfach etc.</p><p><b>type</b>: string</p><p><b>repeats</b>: true</p></blockquote><blockquote><p><b>item</b></p><p><b>linkId</b>: patient.postalCode</p><p><b>definition</b>: <a href="http://fhir.ch/ig/ch-core/StructureDefinition/ch-core-patient#Patient.address.postalCode">http://fhir.ch/ig/ch-core/StructureDefinition/ch-core-patient#Patient.address.postalCode</a></p><p><b>text</b>: PLZ</p><p><b>type</b>: string</p></blockquote><blockquote><p><b>item</b></p><p><b>linkId</b>: patient.city</p><p><b>definition</b>: <a href="http://fhir.ch/ig/ch-core/StructureDefinition/ch-core-patient#Patient.address.city">http://fhir.ch/ig/ch-core/StructureDefinition/ch-core-patient#Patient.address.city</a></p><p><b>text</b>: Ort</p><p><b>type</b>: string</p></blockquote><blockquote><p><b>item</b></p><p><b>linkId</b>: patient.country</p><p><b>definition</b>: <a href="http://fhir.ch/ig/ch-core/StructureDefinition/ch-core-patient#Patient.address.country">http://fhir.ch/ig/ch-core/StructureDefinition/ch-core-patient#Patient.address.country</a></p><p><b>text</b>: Land</p><p><b>type</b>: string</p></blockquote><blockquote><p><b>item</b></p><p><b>linkId</b>: patient.contactperson</p><p><b>definition</b>: <a href="http://fhir.ch/ig/ch-etoc/StructureDefinition/ch-etoc-composition#Composition.subject">http://fhir.ch/ig/ch-etoc/StructureDefinition/ch-etoc-composition#Composition.subject</a></p><p><b>text</b>: Patient</p><p><b>type</b>: group</p><h3>Items</h3><table class="grid"><tr><td>-</td></tr><tr><td>*</td></tr><tr><td>*</td></tr><tr><td>*</td></tr><tr><td>*</td></tr><tr><td>*</td></tr></table></blockquote></blockquote><blockquote><p><b>item</b></p><p><b>linkId</b>: requestedEncounter</p><p><b>definition</b>: <a href="http://fhir.ch/ig/ch-etoc/StructureDefinition/ch-etoc-servicerequest#ServiceRequest.extension:requestedencounterdetails">http://fhir.ch/ig/ch-etoc/StructureDefinition/ch-etoc-servicerequest#ServiceRequest.extension:requestedencounterdetails</a></p><p><b>text</b>: Patientenaufnahme</p><p><b>type</b>: group</p><blockquote><p><b>item</b></p><p><b>linkId</b>: requestedEncounter.class</p><p><b>definition</b>: <a href="http://fhir.ch/ig/ch-orf/StructureDefinition/ch-orf-encounter#Encounter.class">http://fhir.ch/ig/ch-orf/StructureDefinition/ch-orf-encounter#Encounter.class</a></p><p><b>text</b>: Voraussichtlich: Ambulant / Stationär / Notfall</p><p><b>type</b>: choice</p><p><b>required</b>: true</p><h3>AnswerOptions</h3><table class="grid"><tr><td>-</td></tr><tr><td>*</td></tr><tr><td>*</td></tr><tr><td>*</td></tr></table></blockquote><blockquote><p><b>item</b></p><p><b>linkId</b>: requestedEncounter.desiredAccommodation</p><p><b>definition</b>: <a href="http://fhir.ch/ig/ch-orf/StructureDefinition/ch-orf-encounter#Encounter.extension:desiredaccommodation">http://fhir.ch/ig/ch-orf/StructureDefinition/ch-orf-encounter#Encounter.extension:desiredaccommodation</a></p><p><b>text</b>: Zimmerkategorie</p><p><b>type</b>: choice</p><h3>AnswerOptions</h3><table class="grid"><tr><td>-</td></tr><tr><td>*</td></tr><tr><td>*</td></tr><tr><td>*</td></tr></table></blockquote></blockquote><blockquote><p><b>item</b></p><p><b>linkId</b>: coverage</p><p><b>definition</b>: <a href="http://fhir.ch/ig/ch-etoc/StructureDefinition/ch-etoc-servicerequest#ServiceRequest.insurance">http://fhir.ch/ig/ch-etoc/StructureDefinition/ch-etoc-servicerequest#ServiceRequest.insurance</a></p><p><b>text</b>: Kostenträger</p><p><b>type</b>: group</p><blockquote><p><b>item</b></p><p><b>linkId</b>: coverage.beneficiary</p><p><b>definition</b>: <a href="http://fhir.ch/ig/ch-orf/StructureDefinition/ch-orf-coverage#Coverage.beneficiary">http://fhir.ch/ig/ch-orf/StructureDefinition/ch-orf-coverage#Coverage.beneficiary</a></p><p><b>text</b>: Begünstigter (Patient)</p><p><b>type</b>: group</p><h3>Items</h3><table class="grid"><tr><td>-</td></tr><tr><td>*</td></tr></table></blockquote><blockquote><p><b>item</b></p><p><b>linkId</b>: coverage.kvg</p><p><b>definition</b>: <a href="http://fhir.ch/ig/ch-orf/StructureDefinition/ch-orf-coverage#Coverage.type">http://fhir.ch/ig/ch-orf/StructureDefinition/ch-orf-coverage#Coverage.type</a></p><p><b>text</b>: Krankenkasse (nach KVG)</p><p><b>type</b>: group</p><h3>Items</h3><table class="grid"><tr><td>-</td></tr><tr><td>*</td></tr><tr><td>*</td></tr></table></blockquote><blockquote><p><b>item</b></p><p><b>linkId</b>: coverage.uvg</p><p><b>definition</b>: <a href="http://fhir.ch/ig/ch-orf/StructureDefinition/ch-orf-coverage#Coverage.type">http://fhir.ch/ig/ch-orf/StructureDefinition/ch-orf-coverage#Coverage.type</a></p><p><b>text</b>: Unfallversicherung (nach UVG)</p><p><b>type</b>: group</p><h3>Items</h3><table class="grid"><tr><td>-</td></tr><tr><td>*</td></tr><tr><td>*</td></tr></table></blockquote><blockquote><p><b>item</b></p><p><b>linkId</b>: coverage.vvg</p><p><b>definition</b>: <a href="http://fhir.ch/ig/ch-orf/StructureDefinition/ch-orf-coverage#Coverage.type">http://fhir.ch/ig/ch-orf/StructureDefinition/ch-orf-coverage#Coverage.type</a></p><p><b>text</b>: Zusatzversicherung (nach VVG)</p><p><b>type</b>: group</p><h3>Items</h3><table class="grid"><tr><td>-</td></tr><tr><td>*</td></tr><tr><td>*</td></tr></table></blockquote><blockquote><p><b>item</b></p><p><b>linkId</b>: coverage.iv</p><p><b>definition</b>: <a href="http://fhir.ch/ig/ch-orf/StructureDefinition/ch-orf-coverage#Coverage.type">http://fhir.ch/ig/ch-orf/StructureDefinition/ch-orf-coverage#Coverage.type</a></p><p><b>text</b>: Invalidenversicherung (IV)</p><p><b>type</b>: group</p><h3>Items</h3><table class="grid"><tr><td>-</td></tr><tr><td>*</td></tr></table></blockquote><blockquote><p><b>item</b></p><p><b>linkId</b>: coverage.mv</p><p><b>definition</b>: <a href="http://fhir.ch/ig/ch-orf/StructureDefinition/ch-orf-coverage#Coverage.type">http://fhir.ch/ig/ch-orf/StructureDefinition/ch-orf-coverage#Coverage.type</a></p><p><b>text</b>: Militärversicherung (MV)</p><p><b>type</b>: group</p><h3>Items</h3><table class="grid"><tr><td>-</td></tr><tr><td>*</td></tr></table></blockquote><blockquote><p><b>item</b></p><p><b>linkId</b>: coverage.self</p><p><b>definition</b>: <a href="http://fhir.ch/ig/ch-orf/StructureDefinition/ch-orf-coverage#Coverage.type">http://fhir.ch/ig/ch-orf/StructureDefinition/ch-orf-coverage#Coverage.type</a></p><p><b>text</b>: Selbstzahler</p><p><b>type</b>: group</p><h3>Items</h3><table class="grid"><tr><td>-</td></tr><tr><td>*</td></tr><tr><td>*</td></tr></table></blockquote><blockquote><p><b>item</b></p><p><b>linkId</b>: coverage.other</p><p><b>definition</b>: <a href="http://fhir.ch/ig/ch-orf/StructureDefinition/ch-orf-coverage#Coverage.type">http://fhir.ch/ig/ch-orf/StructureDefinition/ch-orf-coverage#Coverage.type</a></p><p><b>text</b>: Anderer Kostenträger</p><p><b>type</b>: group</p><h3>Items</h3><table class="grid"><tr><td>-</td></tr><tr><td>*</td></tr><tr><td>*</td></tr><tr><td>*</td></tr></table></blockquote></blockquote><blockquote><p><b>item</b></p><p><b>linkId</b>: sender</p><p><b>text</b>: Absender</p><p><b>type</b>: group</p><p><b>required</b>: true</p><blockquote><p><b>item</b></p><p><b>linkId</b>: sender.author</p><p><b>definition</b>: <a href="http://fhir.ch/ig/ch-etoc/StructureDefinition/ch-etoc-composition#Composition.author">http://fhir.ch/ig/ch-etoc/StructureDefinition/ch-etoc-composition#Composition.author</a></p><p><b>text</b>: Verantwortlicher</p><p><b>type</b>: group</p><p><b>required</b>: true</p><h3>Items</h3><table class="grid"><tr><td>-</td></tr><tr><td>*</td></tr><tr><td>*</td></tr></table></blockquote><blockquote><p><b>item</b></p><p><b>linkId</b>: sender.dataenterer</p><p><b>definition</b>: <a href="http://fhir.ch/ig/ch-etoc/StructureDefinition/ch-etoc-composition#Composition.extension:dataEnterer">http://fhir.ch/ig/ch-etoc/StructureDefinition/ch-etoc-composition#Composition.extension:dataEnterer</a></p><p><b>text</b>: Erfasser</p><p><b>type</b>: group</p><h3>Items</h3><table class="grid"><tr><td>-</td></tr><tr><td>*</td></tr></table></blockquote></blockquote><blockquote><p><b>item</b></p><p><b>linkId</b>: receiver</p><p><b>definition</b>: <a href="http://fhir.ch/ig/ch-etoc/StructureDefinition/ch-etoc-composition#Composition.extension:receiver">http://fhir.ch/ig/ch-etoc/StructureDefinition/ch-etoc-composition#Composition.extension:receiver</a></p><p><b>text</b>: Empfänger</p><p><b>type</b>: group</p><blockquote><p><b>item</b></p><p><b>linkId</b>: receiver.practitioner</p><p><b>definition</b>: <a href="http://fhir.ch/ig/ch-core/StructureDefinition/ch-core-practitionerrole#PractitionerRole.practitioner">http://fhir.ch/ig/ch-core/StructureDefinition/ch-core-practitionerrole#PractitionerRole.practitioner</a></p><p><b>text</b>: Empfangende Person</p><p><b>type</b>: group</p><h3>Items</h3><table class="grid"><tr><td>-</td></tr><tr><td>*</td></tr><tr><td>*</td></tr><tr><td>*</td></tr><tr><td>*</td></tr><tr><td>*</td></tr><tr><td>*</td></tr></table></blockquote><blockquote><p><b>item</b></p><p><b>linkId</b>: receiver.organization</p><p><b>definition</b>: <a href="http://fhir.ch/ig/ch-core/StructureDefinition/ch-core-practitionerrole#PractitionerRole.organization">http://fhir.ch/ig/ch-core/StructureDefinition/ch-core-practitionerrole#PractitionerRole.organization</a></p><p><b>text</b>: Empfangende Organisation</p><p><b>type</b>: group</p><h3>Items</h3><table class="grid"><tr><td>-</td></tr><tr><td>*</td></tr><tr><td>*</td></tr><tr><td>*</td></tr><tr><td>*</td></tr><tr><td>*</td></tr></table></blockquote></blockquote><blockquote><p><b>item</b></p><p><b>linkId</b>: receiverCopies</p><p><b>definition</b>: <a href="http://fhir.ch/ig/ch-etoc/StructureDefinition/ch-etoc-composition#Composition.extension:copyReceiver">http://fhir.ch/ig/ch-etoc/StructureDefinition/ch-etoc-composition#Composition.extension:copyReceiver</a></p><p><b>text</b>: Kopieempfänger</p><p><b>type</b>: group</p><blockquote><p><b>item</b></p><p><b>linkId</b>: receiverCopy</p><p><b>text</b>: Kopieempfangende Organisation oder Person</p><p><b>type</b>: group</p><p><b>repeats</b>: true</p><h3>Items</h3><table class="grid"><tr><td>-</td></tr><tr><td>*</td></tr><tr><td>*</td></tr><tr><td>*</td></tr><tr><td>*</td></tr><tr><td>*</td></tr><tr><td>*</td></tr><tr><td>*</td></tr><tr><td>*</td></tr><tr><td>*</td></tr><tr><td>*</td></tr></table></blockquote></blockquote><blockquote><p><b>item</b></p><p><b>linkId</b>: appointment</p><p><b>definition</b>: <a href="http://fhir.ch/ig/ch-orf/StructureDefinition/ch-orf-servicerequest#ServiceRequest.extension:locationAndTime">http://fhir.ch/ig/ch-orf/StructureDefinition/ch-orf-servicerequest#ServiceRequest.extension:locationAndTime</a></p><p><b>text</b>: Ort und Zeit der Durchführung der angeforderten Leistung</p><p><b>type</b>: group</p><p><b>repeats</b>: true</p><blockquote><p><b>item</b></p><p><b>linkId</b>: appointment.location</p><p><b>definition</b>: <a href="http://fhir.ch/ig/ch-orf/StructureDefinition/ch-orf-appointment#Appointment.participant.actor">http://fhir.ch/ig/ch-orf/StructureDefinition/ch-orf-appointment#Appointment.participant.actor</a></p><p><b>text</b>: Ort der Durchführung</p><p><b>type</b>: group</p><p><b>required</b>: true</p><h3>Items</h3><table class="grid"><tr><td>-</td></tr><tr><td>*</td></tr><tr><td>*</td></tr><tr><td>*</td></tr><tr><td>*</td></tr><tr><td>*</td></tr><tr><td>*</td></tr><tr><td>*</td></tr></table></blockquote><blockquote><p><b>item</b></p><p><b>linkId</b>: appointment.requestedPeriod</p><p><b>definition</b>: <a href="http://fhir.ch/ig/ch-orf/StructureDefinition/ch-orf-appointment#Appointment.requestedPeriod">http://fhir.ch/ig/ch-orf/StructureDefinition/ch-orf-appointment#Appointment.requestedPeriod</a></p><p><b>text</b>: Datum und Zeit, wann der Termin bevorzugt geplant werden soll</p><p><b>type</b>: group</p><h3>Items</h3><table class="grid"><tr><td>-</td></tr><tr><td>*</td></tr><tr><td>*</td></tr></table></blockquote><blockquote><p><b>item</b></p><p><b>linkId</b>: appointment.status</p><p><b>definition</b>: <a href="http://fhir.ch/ig/ch-orf/StructureDefinition/ch-orf-appointment#Appointment.status">http://fhir.ch/ig/ch-orf/StructureDefinition/ch-orf-appointment#Appointment.status</a></p><p><b>text</b>: Status</p><p><b>type</b>: choice</p><p><b>required</b>: true</p><h3>AnswerOptions</h3><table class="grid"><tr><td>-</td></tr><tr><td>*</td></tr><tr><td>*</td></tr><tr><td>*</td></tr></table></blockquote><blockquote><p><b>item</b></p><p><b>linkId</b>: appointment.patientInstruction</p><p><b>definition</b>: <a href="http://fhir.ch/ig/ch-orf/StructureDefinition/ch-orf-appointment#Appointment.patientInstruction">http://fhir.ch/ig/ch-orf/StructureDefinition/ch-orf-appointment#Appointment.patientInstruction</a></p><p><b>text</b>: Patienteninformation für diesen Termin</p><p><b>type</b>: string</p></blockquote></blockquote><blockquote><p><b>item</b></p><p><b>linkId</b>: purpose</p><p><b>text</b>: Wozu wird der Patient zugewiesen?</p><p><b>type</b>: group</p><p><b>repeats</b>: false</p><h3>Items</h3><table class="grid"><tr><td>-</td><td><b>LinkId</b></td><td><b>Definition</b></td><td><b>Text</b></td><td><b>Type</b></td><td><b>Repeats</b></td></tr><tr><td>*</td><td>purpose.aim</td><td><a href="http://fhir.ch/ig/ch-etoc/StructureDefinition/ch-etoc-servicerequest#ServiceRequest.code.text">http://fhir.ch/ig/ch-etoc/StructureDefinition/ch-etoc-servicerequest#ServiceRequest.code.text</a></td><td>Ziel</td><td>string</td><td>true</td></tr><tr><td>*</td><td>reason.statement</td><td><a href="http://fhir.ch/ig/ch-etoc/StructureDefinition/ch-etoc-servicerequest#ServiceRequest.reasonCode.text">http://fhir.ch/ig/ch-etoc/StructureDefinition/ch-etoc-servicerequest#ServiceRequest.reasonCode.text</a></td><td>Begründung</td><td>string</td><td>true</td></tr></table></blockquote><blockquote><p><b>item</b></p><p><b>linkId</b>: diagnosisList</p><p><b>text</b>: Diagnosen und Befunde</p><p><b>type</b>: group</p><p><b>repeats</b>: false</p><blockquote><p><b>item</b></p><p><b>linkId</b>: diagnosisList.primarydiagnosis</p><p><b>text</b>: Hauptdiagnosen / Probleme</p><p><b>type</b>: group</p><h3>Items</h3><table class="grid"><tr><td>-</td></tr><tr><td>*</td></tr></table></blockquote><blockquote><p><b>item</b></p><p><b>linkId</b>: diagnosisList.secondarydiagnosis</p><p><b>text</b>: Nebendiagnosen / Probleme</p><p><b>type</b>: group</p><h3>Items</h3><table class="grid"><tr><td>-</td></tr><tr><td>*</td></tr></table></blockquote><blockquote><p><b>item</b></p><p><b>linkId</b>: diagnosisList.bodyHeight</p><p><b>definition</b>: <a href="http://fhir.ch/ig/ch-etoc/StructureDefinition/ch-etoc-servicerequest#ServiceRequest.supportingInfo:bodyHeight">http://fhir.ch/ig/ch-etoc/StructureDefinition/ch-etoc-servicerequest#ServiceRequest.supportingInfo:bodyHeight</a></p><p><b>text</b>: Grösse (cm)</p><p><b>type</b>: quantity</p><p><b>repeats</b>: false</p></blockquote><blockquote><p><b>item</b></p><p><b>linkId</b>: diagnosisList.bodyWeight</p><p><b>definition</b>: <a href="http://fhir.ch/ig/ch-etoc/StructureDefinition/ch-etoc-servicerequest#ServiceRequest.supportingInfo:bodyWeight">http://fhir.ch/ig/ch-etoc/StructureDefinition/ch-etoc-servicerequest#ServiceRequest.supportingInfo:bodyWeight</a></p><p><b>text</b>: Gewicht (kg)</p><p><b>type</b>: quantity</p><p><b>repeats</b>: false</p></blockquote><blockquote><p><b>item</b></p><p><b>linkId</b>: diagnosisList.pregnancy</p><p><b>definition</b>: <a href="http://fhir.ch/ig/ch-etoc/StructureDefinition/ch-etoc-servicerequest#ServiceRequest.supportingInfo:pregnancy">http://fhir.ch/ig/ch-etoc/StructureDefinition/ch-etoc-servicerequest#ServiceRequest.supportingInfo:pregnancy</a></p><p><b>text</b>: Schwangerschaft</p><p><b>type</b>: boolean</p><p><b>repeats</b>: false</p><h3>Items</h3><table class="grid"><tr><td>-</td></tr><tr><td>*</td></tr></table></blockquote></blockquote><blockquote><p><b>item</b></p><p><b>linkId</b>: anamnesis</p><p><b>text</b>: Anamnese</p><p><b>type</b>: group</p><p><b>repeats</b>: false</p><h3>Items</h3><table class="grid"><tr><td>-</td><td><b>LinkId</b></td><td><b>Definition</b></td><td><b>Text</b></td><td><b>Type</b></td><td><b>Repeats</b></td></tr><tr><td>*</td><td>anamnesis.historyofillnesses</td><td><a href="http://fhir.ch/ig/ch-etoc/StructureDefinition/ch-etoc-servicerequest#ServiceRequest.supportingInfo:historyofIllnesses">http://fhir.ch/ig/ch-etoc/StructureDefinition/ch-etoc-servicerequest#ServiceRequest.supportingInfo:historyofIllnesses</a></td><td>Bisherige Krankheiten und Unfälle</td><td>text</td><td>false</td></tr><tr><td>*</td><td>anamnesis.historyofprocedures</td><td><a href="http://fhir.ch/ig/ch-etoc/StructureDefinition/ch-etoc-servicerequest#ServiceRequest.supportingInfo:historyofProcedures">http://fhir.ch/ig/ch-etoc/StructureDefinition/ch-etoc-servicerequest#ServiceRequest.supportingInfo:historyofProcedures</a></td><td>Bisherige Abklärungen und Eingriffe</td><td>text</td><td>false</td></tr><tr><td>*</td><td>anamnesis.devices</td><td><a href="http://fhir.ch/ig/ch-etoc/StructureDefinition/ch-etoc-servicerequest#ServiceRequest.supportingInfo:devices">http://fhir.ch/ig/ch-etoc/StructureDefinition/ch-etoc-servicerequest#ServiceRequest.supportingInfo:devices</a></td><td>Implantate, Schrittmacher, Neurostimulatoren etc.</td><td>text</td><td>false</td></tr><tr><td>*</td><td>anamnesis.socialhistory</td><td><a href="http://fhir.ch/ig/ch-etoc/StructureDefinition/ch-etoc-servicerequest#ServiceRequest.supportingInfo:socialHistory">http://fhir.ch/ig/ch-etoc/StructureDefinition/ch-etoc-servicerequest#ServiceRequest.supportingInfo:socialHistory</a></td><td>Sozialanamnese</td><td>text</td><td>false</td></tr><tr><td>*</td><td>anamnesis.functionalStatus</td><td><a href="http://fhir.ch/ig/ch-etoc/StructureDefinition/ch-etoc-servicerequest#ServiceRequest.supportingInfo:functionalStatus">http://fhir.ch/ig/ch-etoc/StructureDefinition/ch-etoc-servicerequest#ServiceRequest.supportingInfo:functionalStatus</a></td><td>Funktion, Behinderungen</td><td>text</td><td>false</td></tr></table></blockquote><blockquote><p><b>item</b></p><p><b>linkId</b>: medication</p><p><b>text</b>: Aktuelle Medikation</p><p><b>type</b>: group</p><p><b>repeats</b>: false</p><h3>Items</h3><table class="grid"><tr><td>-</td><td><b>LinkId</b></td><td><b>Definition</b></td><td><b>Text</b></td><td><b>Type</b></td><td><b>Repeats</b></td></tr><tr><td>*</td><td>medication.medicationcard</td><td><a href="http://fhir.ch/ig/ch-etoc/StructureDefinition/ch-etoc-servicerequest#ServiceRequest.supportingInfo:medicationcard">http://fhir.ch/ig/ch-etoc/StructureDefinition/ch-etoc-servicerequest#ServiceRequest.supportingInfo:medicationcard</a></td><td>Medikation</td><td>string</td><td>true</td></tr></table></blockquote><blockquote><p><b>item</b></p><p><b>linkId</b>: allergy</p><p><b>text</b>: Allergien und Intoleranzen</p><p><b>type</b>: group</p><p><b>repeats</b>: false</p><h3>Items</h3><table class="grid"><tr><td>-</td><td><b>LinkId</b></td><td><b>Definition</b></td><td><b>Text</b></td><td><b>Type</b></td><td><b>Repeats</b></td></tr><tr><td>*</td><td>allergy.allegiesIntolerances</td><td><a href="http://fhir.ch/ig/ch-etoc/StructureDefinition/ch-etoc-servicerequest#ServiceRequest.supportingInfo:allergiesIntolerances">http://fhir.ch/ig/ch-etoc/StructureDefinition/ch-etoc-servicerequest#ServiceRequest.supportingInfo:allergiesIntolerances</a></td><td>Allergien / Intoleranzen</td><td>text</td><td>false</td></tr></table></blockquote><blockquote><p><b>item</b></p><p><b>linkId</b>: immunizationstatus</p><p><b>text</b>: Impfungen</p><p><b>type</b>: group</p><p><b>repeats</b>: false</p><h3>Items</h3><table class="grid"><tr><td>-</td><td><b>LinkId</b></td><td><b>Definition</b></td><td><b>Text</b></td><td><b>Type</b></td><td><b>Repeats</b></td></tr><tr><td>*</td><td>immunizationstatus.immunizations</td><td><a href="http://fhir.ch/ig/ch-etoc/StructureDefinition/ch-etoc-servicerequest#ServiceRequest.supportingInfo:immunizations">http://fhir.ch/ig/ch-etoc/StructureDefinition/ch-etoc-servicerequest#ServiceRequest.supportingInfo:immunizations</a></td><td>Bisherige Impfungen</td><td>text</td><td>false</td></tr></table></blockquote><blockquote><p><b>item</b></p><p><b>linkId</b>: lab</p><p><b>text</b>: Labor</p><p><b>type</b>: group</p><p><b>repeats</b>: false</p><h3>Items</h3><table class="grid"><tr><td>-</td><td><b>LinkId</b></td><td><b>Definition</b></td><td><b>Text</b></td><td><b>Type</b></td><td><b>Repeats</b></td></tr><tr><td>*</td><td>lab.labresults</td><td><a href="http://fhir.ch/ig/ch-etoc/StructureDefinition/ch-etoc-servicerequest#ServiceRequest.supportingInfo:labresults">http://fhir.ch/ig/ch-etoc/StructureDefinition/ch-etoc-servicerequest#ServiceRequest.supportingInfo:labresults</a></td><td>Laborresultat</td><td>string</td><td>true</td></tr></table></blockquote><blockquote><p><b>item</b></p><p><b>linkId</b>: pathology</p><p><b>text</b>: Pathologie</p><p><b>type</b>: group</p><p><b>repeats</b>: false</p><h3>Items</h3><table class="grid"><tr><td>-</td><td><b>LinkId</b></td><td><b>Definition</b></td><td><b>Text</b></td><td><b>Type</b></td><td><b>Repeats</b></td></tr><tr><td>*</td><td>pathology.pathologyresults</td><td><a href="http://fhir.ch/ig/ch-etoc/StructureDefinition/ch-etoc-servicerequest#ServiceRequest.supportingInfo:pathologyresults">http://fhir.ch/ig/ch-etoc/StructureDefinition/ch-etoc-servicerequest#ServiceRequest.supportingInfo:pathologyresults</a></td><td>Pathologiebefunde</td><td>text</td><td>false</td></tr></table></blockquote><blockquote><p><b>item</b></p><p><b>linkId</b>: imaging</p><p><b>text</b>: Bildgebung</p><p><b>type</b>: group</p><p><b>repeats</b>: false</p><h3>Items</h3><table class="grid"><tr><td>-</td><td><b>LinkId</b></td><td><b>Definition</b></td><td><b>Text</b></td><td><b>Type</b></td><td><b>Repeats</b></td></tr><tr><td>*</td><td>imaging.imagingresults</td><td><a href="http://fhir.ch/ig/ch-etoc/StructureDefinition/ch-etoc-servicerequest#ServiceRequest.supportingInfo:imagingresults">http://fhir.ch/ig/ch-etoc/StructureDefinition/ch-etoc-servicerequest#ServiceRequest.supportingInfo:imagingresults</a></td><td>Befunde aus der Bildgebung</td><td>text</td><td>false</td></tr></table></blockquote><blockquote><p><b>item</b></p><p><b>linkId</b>: cardiology</p><p><b>text</b>: Kardiologie</p><p><b>type</b>: group</p><p><b>repeats</b>: false</p><h3>Items</h3><table class="grid"><tr><td>-</td><td><b>LinkId</b></td><td><b>Definition</b></td><td><b>Text</b></td><td><b>Type</b></td><td><b>Repeats</b></td></tr><tr><td>*</td><td>cardiology.cardiologyresults</td><td><a href="http://fhir.ch/ig/ch-etoc/StructureDefinition/ch-etoc-servicerequest#ServiceRequest.supportingInfo:cardiologyresults">http://fhir.ch/ig/ch-etoc/StructureDefinition/ch-etoc-servicerequest#ServiceRequest.supportingInfo:cardiologyresults</a></td><td>EKG / Kardiologische Befunde</td><td>text</td><td>false</td></tr></table></blockquote><blockquote><p><b>item</b></p><p><b>linkId</b>: carePlans</p><p><b>text</b>: Verlauf</p><p><b>type</b>: group</p><p><b>repeats</b>: false</p><blockquote><p><b>item</b></p><p><b>linkId</b>: carePlans.medical</p><p><b>definition</b>: <a href="http://fhir.ch/ig/ch-etoc/StructureDefinition/ch-etoc-servicerequest#ServiceRequest.supportingInfo:medicalCarePlan">http://fhir.ch/ig/ch-etoc/StructureDefinition/ch-etoc-servicerequest#ServiceRequest.supportingInfo:medicalCarePlan</a></p><p><b>text</b>: Ärztlicher Bericht</p><p><b>type</b>: text</p><p><b>repeats</b>: true</p></blockquote><blockquote><p><b>item</b></p><p><b>linkId</b>: carePlans.nursing</p><p><b>definition</b>: <a href="http://fhir.ch/ig/ch-etoc/StructureDefinition/ch-etoc-servicerequest#ServiceRequest.supportingInfo:nursingCarePlan">http://fhir.ch/ig/ch-etoc/StructureDefinition/ch-etoc-servicerequest#ServiceRequest.supportingInfo:nursingCarePlan</a></p><p><b>text</b>: Pflegebericht</p><p><b>type</b>: text</p><p><b>repeats</b>: true</p></blockquote><blockquote><p><b>item</b></p><p><b>linkId</b>: attachments</p><p><b>text</b>: Anhang</p><p><b>type</b>: group</p><p><b>repeats</b>: true</p><h3>Items</h3><table class="grid"><tr><td>-</td></tr><tr><td>*</td></tr><tr><td>*</td></tr></table></blockquote></blockquote><blockquote><p><b>item</b></p><p><b>linkId</b>: note</p><p><b>text</b>: Bemerkungen</p><p><b>type</b>: group</p><p><b>repeats</b>: false</p><h3>Items</h3><table class="grid"><tr><td>-</td><td><b>LinkId</b></td><td><b>Definition</b></td><td><b>Text</b></td><td><b>Type</b></td><td><b>Required</b></td></tr><tr><td>*</td><td>note.text</td><td><a href="http://fhir.ch/ig/ch-etoc/StructureDefinition/ch-etoc-servicerequest#ServiceRequest.note.text">http://fhir.ch/ig/ch-etoc/StructureDefinition/ch-etoc-servicerequest#ServiceRequest.note.text</a></td><td>Text</td><td>text</td><td>false</td></tr></table></blockquote></div>
        </text>
        <extension url="http://hl7.org/fhir/uv/sdc/StructureDefinition/sdc-questionnaire-targetStructureMap">
          <valueCanonical value="http://fhir.ch/ig/ch-etoc/StructureMap/RadOrderQrToBundle"/>
        </extension>
        <extension url="http://hl7.org/fhir/uv/sdc/StructureDefinition/sdc-questionnaire-sourceStructureMap">
          <valueCanonical value="http://fhir.ch/ig/ch-orf/StructureMap/OrfPrepopBundleToQr"/>
        </extension>
        <extension url="http://hl7.org/fhir/uv/sdc/StructureDefinition/sdc-questionnaire-launchContext">
          <extension url="name">
            <valueId value="Bundle"/>
          </extension>
          <extension url="type">
            <valueCode value="Bundle"/>
          </extension>
          <extension url="description">
            <valueString value="The Bundle that is to be used to pre-populate the form"/>
          </extension>
        </extension>
        <url value="http://fhir.ch/ig/ch-etoc/Questionnaire/QuestionnaireEtoc"/>
        <name value="QuestionnaireEtoc"/>
        <title value="Questionnaire Electronic Transition of Carer"/>
        <derivedFrom value="http://fhir.ch/ig/ch-orf/StructureDefinition/ch-orf-questionnaire"/>
        <status value="active"/>
        <subjectType value="Patient"/>
        <date value="2021-02-24"/>
        <publisher value="HL7 Switzerland"/>
        <item>
          <linkId value="order"/>
          <definition value="http://fhir.ch/ig/ch-etoc/StructureDefinition/ch-etoc-document#Bundle"/>
          <text value="Auftrag"/>
          <type value="group"/>
          <required value="true"/>
          <item>
            <linkId value="order.title"/>
            <definition value="http://fhir.ch/ig/ch-etoc/StructureDefinition/ch-etoc-composition#Composition.title"/>
            <text value="Titel"/>
            <type value="string"/>
            <required value="true"/>
            <readOnly value="true"/>
          </item>
          <item>
            <linkId value="order.type"/>
            <definition value="http://fhir.ch/ig/ch-etoc/StructureDefinition/ch-etoc-composition#Composition.type"/>
            <text value="Typ"/>
            <type value="choice"/>
            <required value="true"/>
            <readOnly value="true"/>
            <answerValueSet value="http://fhir.ch/ig/ch-epr-term/ValueSet/DocumentEntry.typeCode"/>
          </item>
          <item>
            <linkId value="order.category"/>
            <definition value="http://fhir.ch/ig/ch-etoc/StructureDefinition/ch-etoc-composition#Composition.category"/>
            <text value="Kategorie"/>
            <type value="choice"/>
            <required value="true"/>
            <readOnly value="true"/>
            <answerValueSet value="http://fhir.ch/ig/ch-epr-term/ValueSet/DocumentEntry.classCode"/>
          </item>
          <item>
            <linkId value="order.placerOrderIdentifier"/>
            <definition value="http://fhir.ch/ig/ch-etoc/StructureDefinition/ch-etoc-servicerequest#ServiceRequest.identifier:placerOrderIdentifier.value"/>
            <text value="Auftragsnummer des Auftraggebers"/>
            <type value="string"/>
            <required value="true"/>
          </item>
          <item>
            <extension url="http://hl7.org/fhir/StructureDefinition/questionnaire-hidden">
              <valueBoolean value="true"/>
            </extension>
            <linkId value="order.placerOrderIdentifierDomain"/>
            <definition value="http://fhir.ch/ig/ch-etoc/StructureDefinition/ch-etoc-servicerequest#ServiceRequest.identifier:placerOrderIdentifier.system"/>
            <text value="Identifier Domain der Auftragsnummer des Auftraggebers"/>
            <type value="string"/>
            <required value="true"/>
          </item>
          <item>
            <linkId value="order.fillerOrderIdentifier"/>
            <definition value="http://fhir.ch/ig/ch-etoc/StructureDefinition/ch-etoc-servicerequest#ServiceRequest.identifier:fillerOrderIdentifier.value"/>
            <text value="Auftragsnummer des Auftragsempf&#xE4;ngers"/>
            <type value="string"/>
          </item>
          <item>
            <extension url="http://hl7.org/fhir/StructureDefinition/questionnaire-hidden">
              <valueBoolean value="true"/>
            </extension>
            <linkId value="order.fillerOrderIdentifierDomain"/>
            <definition value="http://fhir.ch/ig/ch-etoc/StructureDefinition/ch-etoc-servicerequest#ServiceRequest.identifier:fillerOrderIdentifier.system"/>
            <text value="Identifier Domain der Auftragsnummer des Auftragsempf&#xE4;ngers"/>
            <type value="string"/>
          </item>
          <item>
            <extension url="http://hl7.org/fhir/StructureDefinition/questionnaire-hidden">
              <valueBoolean value="true"/>
            </extension>
            <linkId value="order.precedentDocumentIdentifier"/>
            <definition value="http://fhir.ch/ig/ch-etoc/StructureDefinition/ch-etoc-composition#Composition.extension:precedentDocument"/>
            <text value="Identifier des Vorg&#xE4;ngerdokuments"/>
            <type value="string"/>
          </item>
          <item>
            <linkId value="order.notificationContactDocument"/>
            <definition value="http://fhir.ch/ig/ch-etoc/StructureDefinition/ch-etoc-composition#Composition.extension:urgentNoficationContactForThisDocument"/>
            <text value="Dringender Benachrichtigungskontakt f&#xFC;r dieses Dokument"/>
            <type value="group"/>
            <item>
              <linkId value="order.notificationContactDocument.practitioner"/>
              <definition value="http://fhir.ch/ig/ch-core/StructureDefinition/ch-core-practitionerrole#PractitionerRole.practitioner"/>
              <text value="Zu benachrichtigende Person"/>
              <type value="group"/>
              <item>
                <linkId value="order.notificationContactDocument.practitioner.title"/>
                <definition value="http://fhir.ch/ig/ch-core/StructureDefinition/ch-core-practitioner#Practitioner.name.prefix"/>
                <text value="Titel"/>
                <type value="string"/>
              </item>
              <item>
                <linkId value="order.notificationContactDocument.practitioner.familyName"/>
                <definition value="http://fhir.ch/ig/ch-core/StructureDefinition/ch-core-practitioner#Practitioner.name.family"/>
                <text value="Name"/>
                <type value="string"/>
              </item>
              <item>
                <linkId value="order.notificationContactDocument.practitioner.givenName"/>
                <definition value="http://fhir.ch/ig/ch-core/StructureDefinition/ch-core-practitioner#Practitioner.name.given"/>
                <text value="Vorname"/>
                <type value="string"/>
              </item>
              <item>
                <linkId value="order.notificationContactDocument.practitioner.phone"/>
                <definition value="http://fhir.ch/ig/ch-core/StructureDefinition/ch-core-practitioner#Practitioner.telecom.value"/>
                <text value="Telefon"/>
                <type value="string"/>
              </item>
              <item>
                <linkId value="order.notificationContactDocument.practitioner.email"/>
                <definition value="http://fhir.ch/ig/ch-core/StructureDefinition/ch-core-practitioner#Practitioner.telecom.value"/>
                <text value="E-Mail"/>
                <type value="string"/>
              </item>
            </item>
          </item>
          <item>
            <linkId value="order.notificationContactDocumentResponse"/>
            <definition value="http://fhir.ch/ig/ch-etoc/StructureDefinition/ch-etoc-composition#Composition.extension:urgentNoficationContactForTheResponseToThisDocument"/>
            <text value="Dringender Benachrichtigungskontakt f&#xFC;r die Antwort auf dieses Dokument"/>
            <type value="group"/>
            <item>
              <linkId value="order.notificationContactDocumentResponse.practitioner"/>
              <definition value="http://fhir.ch/ig/ch-core/StructureDefinition/ch-core-practitionerrole#PractitionerRole.practitioner"/>
              <text value="Zu benachrichtigende Person"/>
              <type value="group"/>
              <item>
                <linkId value="order.notificationContactDocumentResponse.practitioner.title"/>
                <definition value="http://fhir.ch/ig/ch-core/StructureDefinition/ch-core-practitioner#Practitioner.name.prefix"/>
                <text value="Titel"/>
                <type value="string"/>
              </item>
              <item>
                <linkId value="order.notificationContactDocumentResponse.practitioner.familyName"/>
                <definition value="http://fhir.ch/ig/ch-core/StructureDefinition/ch-core-practitioner#Practitioner.name.family"/>
                <text value="Name"/>
                <type value="string"/>
              </item>
              <item>
                <linkId value="order.notificationContactDocumentResponse.practitioner.givenName"/>
                <definition value="http://fhir.ch/ig/ch-core/StructureDefinition/ch-core-practitioner#Practitioner.name.given"/>
                <text value="Vorname"/>
                <type value="string"/>
              </item>
              <item>
                <linkId value="order.notificationContactDocumentResponse.practitioner.phone"/>
                <definition value="http://fhir.ch/ig/ch-core/StructureDefinition/ch-core-practitioner#Practitioner.telecom.value"/>
                <text value="Telefon"/>
                <type value="string"/>
              </item>
              <item>
                <linkId value="order.notificationContactDocumentResponse.practitioner.email"/>
                <definition value="http://fhir.ch/ig/ch-core/StructureDefinition/ch-core-practitioner#Practitioner.telecom.value"/>
                <text value="E-Mail"/>
                <type value="string"/>
              </item>
            </item>
          </item>
          <item>
            <linkId value="order.priority"/>
            <definition value="http://fhir.ch/ig/ch-etoc/StructureDefinition/ch-etoc-servicerequest#ServiceRequest.priority"/>
            <text value="Auftragspriorit&#xE4;t"/>
            <type value="choice"/>
            <answerOption>
              <valueCoding>
                <system value="http://hl7.org/fhir/request-priority"/>
                <code value="routine"/>
                <display value="Die Anfrage hat normale Priorit&#xE4;t."/>
              </valueCoding>
              <initialSelected value="true"/>
            </answerOption>
            <answerOption>
              <valueCoding>
                <system value="http://hl7.org/fhir/request-priority"/>
                <code value="urgent"/>
                <display value="Die Anfrage sollte dringend bearbeitet werden - h&#xF6;here Priorit&#xE4;t als normal."/>
              </valueCoding>
            </answerOption>
            <answerOption>
              <valueCoding>
                <system value="http://hl7.org/fhir/request-priority"/>
                <code value="asap"/>
                <display value="Die Anfrage sollte so schnell wie m&#xF6;glich bearbeitet werden - h&#xF6;here Priorit&#xE4;t als dringend."/>
              </valueCoding>
            </answerOption>
            <answerOption>
              <valueCoding>
                <system value="http://hl7.org/fhir/request-priority"/>
                <code value="stat"/>
                <display value="Die Anfrage sollte sofort bearbeitet werden - h&#xF6;chstm&#xF6;gliche Priorit&#xE4;t. Z.B. bei einem Notfall."/>
              </valueCoding>
            </answerOption>
          </item>
        </item>
        <item>
          <linkId value="patient"/>
          <definition value="http://fhir.ch/ig/ch-etoc/StructureDefinition/ch-etoc-composition#Composition.subject"/>
          <text value="Patient"/>
          <type value="group"/>
          <item>
            <linkId value="patient.familyName"/>
            <definition value="http://fhir.ch/ig/ch-core/StructureDefinition/ch-core-patient#Patient.name.family"/>
            <text value="Name"/>
            <type value="string"/>
          </item>
          <item>
            <linkId value="patient.maidenName"/>
            <definition value="http://fhir.ch/ig/ch-core/StructureDefinition/ch-core-patient#Patient.name.family"/>
            <text value="Ledigname"/>
            <type value="string"/>
          </item>
          <item>
            <linkId value="patient.givenName"/>
            <definition value="http://fhir.ch/ig/ch-core/StructureDefinition/ch-core-patient#Patient.name.given"/>
            <text value="Vorname"/>
            <type value="string"/>
          </item>
          <item>
            <linkId value="patient.localPid"/>
            <definition value="http://fhir.ch/ig/ch-core/StructureDefinition/ch-core-patient#Patient.identifier:LocalPid.value"/>
            <text value="Lokale Patienten-ID"/>
            <type value="string"/>
          </item>
          <item>
            <extension url="http://hl7.org/fhir/StructureDefinition/questionnaire-hidden">
              <valueBoolean value="true"/>
            </extension>
            <linkId value="patient.localPidDomain"/>
            <definition value="http://fhir.ch/ig/ch-core/StructureDefinition/ch-core-patient#Patient.identifier:LocalPid.system"/>
            <text value="Lokale Patienten-ID Domain"/>
            <type value="string"/>
          </item>
          <item>
            <linkId value="patient.birthDate"/>
            <definition value="http://fhir.ch/ig/ch-core/StructureDefinition/ch-core-patient#Patient.birthDate"/>
            <text value="Geburtsdatum"/>
            <type value="date"/>
          </item>
          <item>
            <linkId value="patient.gender"/>
            <definition value="http://fhir.ch/ig/ch-core/StructureDefinition/ch-core-patient#Patient.gender"/>
            <text value="Geschlecht"/>
            <type value="choice"/>
            <answerOption>
              <valueCoding>
                <system value="http://hl7.org/fhir/administrative-gender"/>
                <code value="male"/>
                <display value="M&#xE4;nnlich"/>
              </valueCoding>
              <initialSelected value="true"/>
            </answerOption>
            <answerOption>
              <valueCoding>
                <system value="http://hl7.org/fhir/administrative-gender"/>
                <code value="female"/>
                <display value="Weiblich"/>
              </valueCoding>
            </answerOption>
            <answerOption>
              <valueCoding>
                <system value="http://hl7.org/fhir/administrative-gender"/>
                <code value="other"/>
                <display value="Anderes"/>
              </valueCoding>
            </answerOption>
          </item>
          <item>
            <linkId value="patient.phone"/>
            <definition value="http://fhir.ch/ig/ch-core/StructureDefinition/ch-core-patient#Patient.telecom.value"/>
            <text value="Telefon"/>
            <type value="string"/>
            <repeats value="true"/>
          </item>
          <item>
            <linkId value="patient.email"/>
            <definition value="http://fhir.ch/ig/ch-core/StructureDefinition/ch-core-patient#Patient.telecom.value"/>
            <text value="E-Mail"/>
            <type value="string"/>
          </item>
          <item>
            <linkId value="patient.streetAddressLine"/>
            <definition value="http://fhir.ch/ig/ch-core/StructureDefinition/ch-core-patient#Patient.address.line"/>
            <text value="Strasse, Hausnummer, Postfach etc."/>
            <type value="string"/>
            <repeats value="true"/>
          </item>
          <item>
            <linkId value="patient.postalCode"/>
            <definition value="http://fhir.ch/ig/ch-core/StructureDefinition/ch-core-patient#Patient.address.postalCode"/>
            <text value="PLZ"/>
            <type value="string"/>
          </item>
          <item>
            <linkId value="patient.city"/>
            <definition value="http://fhir.ch/ig/ch-core/StructureDefinition/ch-core-patient#Patient.address.city"/>
            <text value="Ort"/>
            <type value="string"/>
          </item>
          <item>
            <linkId value="patient.country"/>
            <definition value="http://fhir.ch/ig/ch-core/StructureDefinition/ch-core-patient#Patient.address.country"/>
            <text value="Land"/>
            <type value="string"/>
          </item>
          <item>
            <linkId value="patient.contactperson"/>
            <definition value="http://fhir.ch/ig/ch-etoc/StructureDefinition/ch-etoc-composition#Composition.subject"/>
            <text value="Patient"/>
            <type value="group"/>
            <item>
              <linkId value="patient.contactperson.relationship"/>
              <definition value="http://fhir.ch/ig/ch-core/StructureDefinition/ch-core-patient#Patient.contact.relationship.text"/>
              <text value="Beziehung"/>
              <type value="string"/>
            </item>
            <item>
              <linkId value="patient.contactperson.familyName"/>
              <definition value="http://fhir.ch/ig/ch-core/StructureDefinition/ch-core-patient#Patient.contact.name.family"/>
              <text value="Name"/>
              <type value="string"/>
            </item>
            <item>
              <linkId value="patient.contactperson.givenName"/>
              <definition value="http://fhir.ch/ig/ch-core/StructureDefinition/ch-core-patient#Patient.contact.name.given"/>
              <text value="Vorname"/>
              <type value="string"/>
            </item>
            <item>
              <linkId value="patient.contactperson.phone"/>
              <definition value="http://fhir.ch/ig/ch-core/StructureDefinition/ch-core-patient#Patient.contact.telecom.value"/>
              <text value="Telefon"/>
              <type value="string"/>
              <repeats value="true"/>
            </item>
            <item>
              <linkId value="patient.contactperson.email"/>
              <definition value="http://fhir.ch/ig/ch-core/StructureDefinition/ch-core-patient#Patient.contact.telecom.value"/>
              <text value="E-Mail"/>
              <type value="string"/>
            </item>
          </item>
        </item>
        <item>
          <linkId value="requestedEncounter"/>
          <definition value="http://fhir.ch/ig/ch-etoc/StructureDefinition/ch-etoc-servicerequest#ServiceRequest.extension:requestedencounterdetails"/>
          <text value="Patientenaufnahme"/>
          <type value="group"/>
          <item>
            <linkId value="requestedEncounter.class"/>
            <definition value="http://fhir.ch/ig/ch-orf/StructureDefinition/ch-orf-encounter#Encounter.class"/>
            <text value="Voraussichtlich: Ambulant / Station&#xE4;r / Notfall"/>
            <type value="choice"/>
            <required value="true"/>
            <answerOption>
              <valueCoding>
                <system value="http://terminology.hl7.org/CodeSystem/v3-ActCode"/>
                <code value="AMB"/>
                <display value="Ambulant"/>
              </valueCoding>
            </answerOption>
            <answerOption>
              <valueCoding>
                <system value="http://terminology.hl7.org/CodeSystem/v3-ActCode"/>
                <code value="IMP"/>
                <display value="Station&#xE4;r"/>
              </valueCoding>
            </answerOption>
            <answerOption>
              <valueCoding>
                <system value="http://terminology.hl7.org/CodeSystem/v3-ActCode"/>
                <code value="EMER"/>
                <display value="Notfall"/>
              </valueCoding>
            </answerOption>
          </item>
          <item>
            <linkId value="requestedEncounter.desiredAccommodation"/>
            <definition value="http://fhir.ch/ig/ch-orf/StructureDefinition/ch-orf-encounter#Encounter.extension:desiredaccommodation"/>
            <text value="Zimmerkategorie"/>
            <type value="choice"/>
            <answerOption>
              <valueCoding>
                <system value="http://terminology.hl7.org/CodeSystem/v3-ActCode"/>
                <code value="P"/>
                <display value="Einerzimmer"/>
              </valueCoding>
            </answerOption>
            <answerOption>
              <valueCoding>
                <system value="http://terminology.hl7.org/CodeSystem/v3-ActCode"/>
                <code value="SP"/>
                <display value="Zweierzimmer"/>
              </valueCoding>
            </answerOption>
            <answerOption>
              <valueCoding>
                <system value="http://terminology.hl7.org/CodeSystem/v3-ActCode"/>
                <code value="W"/>
                <display value="Mehrbettzimmer"/>
              </valueCoding>
            </answerOption>
          </item>
        </item>
        <item>
          <linkId value="coverage"/>
          <definition value="http://fhir.ch/ig/ch-etoc/StructureDefinition/ch-etoc-servicerequest#ServiceRequest.insurance"/>
          <text value="Kostentr&#xE4;ger"/>
          <type value="group"/>
          <item>
            <linkId value="coverage.beneficiary"/>
            <definition value="http://fhir.ch/ig/ch-orf/StructureDefinition/ch-orf-coverage#Coverage.beneficiary"/>
            <text value="Beg&#xFC;nstigter (Patient)"/>
            <type value="group"/>
            <item>
              <linkId value="coverage.beneficiary.ahvn13"/>
              <definition value="http://fhir.ch/ig/ch-core/StructureDefinition/ch-core-patient#Patient.identifier:AHVN13"/>
              <text value="AHV-Nr. des Patienten"/>
              <type value="string"/>
            </item>
          </item>
          <item>
            <linkId value="coverage.kvg"/>
            <definition value="http://fhir.ch/ig/ch-orf/StructureDefinition/ch-orf-coverage#Coverage.type"/>
            <text value="Krankenkasse (nach KVG)"/>
            <type value="group"/>
            <item>
              <linkId value="coverage.kvg.name"/>
              <definition value="http://fhir.ch/ig/ch-orf/StructureDefinition/ch-orf-coverage#Coverage.payor"/>
              <text value="Name der Versicherung"/>
              <type value="string"/>
            </item>
            <item>
              <linkId value="coverage.kvg.insuranceCardNumber"/>
              <definition value="http://fhir.ch/ig/ch-orf/StructureDefinition/ch-orf-coverage#Coverage.identifier"/>
              <text value="Kennnummer der Versichertenkarte"/>
              <type value="string"/>
            </item>
          </item>
          <item>
            <linkId value="coverage.uvg"/>
            <definition value="http://fhir.ch/ig/ch-orf/StructureDefinition/ch-orf-coverage#Coverage.type"/>
            <text value="Unfallversicherung (nach UVG)"/>
            <type value="group"/>
            <item>
              <linkId value="coverage.uvg.name"/>
              <definition value="http://fhir.ch/ig/ch-orf/StructureDefinition/ch-orf-coverage#Coverage.payor"/>
              <text value="Name der Versicherung"/>
              <type value="string"/>
            </item>
            <item>
              <linkId value="coverage.uvg.claimNumber"/>
              <definition value="http://fhir.ch/ig/ch-orf/StructureDefinition/ch-orf-coverage#Coverage.identifier"/>
              <text value="Schadennummer"/>
              <type value="string"/>
            </item>
          </item>
          <item>
            <linkId value="coverage.vvg"/>
            <definition value="http://fhir.ch/ig/ch-orf/StructureDefinition/ch-orf-coverage#Coverage.type"/>
            <text value="Zusatzversicherung (nach VVG)"/>
            <type value="group"/>
            <item>
              <linkId value="coverage.vvg.name"/>
              <definition value="http://fhir.ch/ig/ch-orf/StructureDefinition/ch-orf-coverage#Coverage.payor"/>
              <text value="Name der Versicherung"/>
              <type value="string"/>
            </item>
            <item>
              <linkId value="coverage.vvg.insuranceCardNumber"/>
              <definition value="http://fhir.ch/ig/ch-orf/StructureDefinition/ch-orf-coverage#Coverage.identifier"/>
              <text value="Kennnummer der Versichertenkarte"/>
              <type value="string"/>
            </item>
          </item>
          <item>
            <linkId value="coverage.iv"/>
            <definition value="http://fhir.ch/ig/ch-orf/StructureDefinition/ch-orf-coverage#Coverage.type"/>
            <text value="Invalidenversicherung (IV)"/>
            <type value="group"/>
            <item>
              <linkId value="coverage.iv.verfuegungsnummer"/>
              <definition value="http://fhir.ch/ig/ch-orf/StructureDefinition/ch-orf-coverage#Coverage.identifier"/>
              <text value="IV-Verf&#xFC;gungsnummer"/>
              <type value="string"/>
            </item>
          </item>
          <item>
            <linkId value="coverage.mv"/>
            <definition value="http://fhir.ch/ig/ch-orf/StructureDefinition/ch-orf-coverage#Coverage.type"/>
            <text value="Milit&#xE4;rversicherung (MV)"/>
            <type value="group"/>
            <item>
              <linkId value="coverage.mv.versichertennummer"/>
              <definition value="http://fhir.ch/ig/ch-orf/StructureDefinition/ch-orf-coverage#Coverage.identifier"/>
              <text value="MV-Versichertennummer"/>
              <type value="string"/>
            </item>
          </item>
          <item>
            <linkId value="coverage.self"/>
            <definition value="http://fhir.ch/ig/ch-orf/StructureDefinition/ch-orf-coverage#Coverage.type"/>
            <text value="Selbstzahler"/>
            <type value="group"/>
            <item>
              <linkId value="coverage.self.familyName"/>
              <definition value="http://fhir.ch/ig/ch-orf/StructureDefinition/ch-orf-coverage#Coverage.payor"/>
              <text value="Name"/>
              <type value="string"/>
            </item>
            <item>
              <linkId value="coverage.self.givenName"/>
              <definition value="http://fhir.ch/ig/ch-orf/StructureDefinition/ch-orf-coverage#Coverage.payor"/>
              <text value="Vorname"/>
              <type value="string"/>
            </item>
          </item>
          <item>
            <linkId value="coverage.other"/>
            <definition value="http://fhir.ch/ig/ch-orf/StructureDefinition/ch-orf-coverage#Coverage.type"/>
            <text value="Anderer Kostentr&#xE4;ger"/>
            <type value="group"/>
            <item>
              <linkId value="coverage.other.name"/>
              <definition value="http://fhir.ch/ig/ch-orf/StructureDefinition/ch-orf-coverage#Coverage.payor"/>
              <text value="Name des Kostentr&#xE4;gers"/>
              <type value="string"/>
            </item>
            <item>
              <linkId value="coverage.other.id"/>
              <definition value="http://fhir.ch/ig/ch-orf/StructureDefinition/ch-orf-coverage#Coverage.identifier"/>
              <text value="Beliebige ID"/>
              <type value="string"/>
            </item>
            <item>
              <linkId value="coverage.other.id.note"/>
              <definition value="http://fhir.ch/ig/ch-orf/StructureDefinition/ch-orf-coverage#Coverage.identifier.type.text"/>
              <text value="Bemerkung zur ID"/>
              <type value="string"/>
            </item>
          </item>
        </item>
        <item>
          <linkId value="sender"/>
          <text value="Absender"/>
          <type value="group"/>
          <required value="true"/>
          <item>
            <linkId value="sender.author"/>
            <definition value="http://fhir.ch/ig/ch-etoc/StructureDefinition/ch-etoc-composition#Composition.author"/>
            <text value="Verantwortlicher"/>
            <type value="group"/>
            <required value="true"/>
            <item>
              <linkId value="sender.author.practitioner"/>
              <definition value="http://fhir.ch/ig/ch-core/StructureDefinition/ch-core-practitionerrole#PractitionerRole.practitioner"/>
              <text value="Verantwortliche Person"/>
              <type value="group"/>
              <required value="true"/>
              <item>
                <linkId value="sender.author.practitioner.title"/>
                <definition value="http://fhir.ch/ig/ch-core/StructureDefinition/ch-core-practitioner#Practitioner.name.prefix"/>
                <text value="Titel"/>
                <type value="string"/>
              </item>
              <item>
                <linkId value="sender.author.practitioner.familyName"/>
                <definition value="http://fhir.ch/ig/ch-core/StructureDefinition/ch-core-practitioner#Practitioner.name.family"/>
                <text value="Name"/>
                <type value="string"/>
                <required value="true"/>
              </item>
              <item>
                <linkId value="sender.author.practitioner.givenName"/>
                <definition value="http://fhir.ch/ig/ch-core/StructureDefinition/ch-core-practitioner#Practitioner.name.given"/>
                <text value="Vorname"/>
                <type value="string"/>
                <required value="true"/>
              </item>
              <item>
                <linkId value="sender.author.practitioner.gln"/>
                <definition value="http://fhir.ch/ig/ch-core/StructureDefinition/ch-core-practitioner#Practitioner.identifier:GLN.value"/>
                <text value="GLN"/>
                <type value="string"/>
              </item>
              <item>
                <linkId value="sender.author.practitioner.phone"/>
                <definition value="http://fhir.ch/ig/ch-core/StructureDefinition/ch-core-practitioner#Practitioner.telecom.value"/>
                <text value="Telefon"/>
                <type value="string"/>
              </item>
              <item>
                <linkId value="sender.author.practitioner.email"/>
                <definition value="http://fhir.ch/ig/ch-core/StructureDefinition/ch-core-practitioner#Practitioner.telecom.value"/>
                <text value="E-Mail"/>
                <type value="string"/>
              </item>
            </item>
            <item>
              <linkId value="sender.author.organization"/>
              <definition value="http://fhir.ch/ig/ch-core/StructureDefinition/ch-core-practitionerrole#PractitionerRole.organization"/>
              <text value="Verantwortliche Organisation"/>
              <type value="group"/>
              <required value="true"/>
              <item>
                <linkId value="sender.author.organization.name"/>
                <definition value="http://fhir.ch/ig/ch-core/StructureDefinition/ch-core-organization#Organization.name"/>
                <text value="Name der Organisation"/>
                <type value="string"/>
                <required value="true"/>
              </item>
              <item>
                <linkId value="sender.author.organization.streetAddressLine"/>
                <definition value="http://fhir.ch/ig/ch-core/StructureDefinition/ch-core-organization#Organization.address.line"/>
                <text value="Strasse, Hausnummer, Postfach etc."/>
                <type value="string"/>
                <repeats value="true"/>
              </item>
              <item>
                <linkId value="sender.author.organization.postalCode"/>
                <definition value="http://fhir.ch/ig/ch-core/StructureDefinition/ch-core-organization#Organization.address.postalCode"/>
                <text value="PLZ"/>
                <type value="string"/>
              </item>
              <item>
                <linkId value="sender.author.organization.city"/>
                <definition value="http://fhir.ch/ig/ch-core/StructureDefinition/ch-core-organization#Organization.address.city"/>
                <text value="Ort"/>
                <type value="string"/>
              </item>
              <item>
                <linkId value="sender.author.organization.country"/>
                <definition value="http://fhir.ch/ig/ch-core/StructureDefinition/ch-core-organization#Organization.address.country"/>
                <text value="Land"/>
                <type value="string"/>
              </item>
            </item>
          </item>
          <item>
            <linkId value="sender.dataenterer"/>
            <definition value="http://fhir.ch/ig/ch-etoc/StructureDefinition/ch-etoc-composition#Composition.extension:dataEnterer"/>
            <text value="Erfasser"/>
            <type value="group"/>
            <item>
              <linkId value="sender.dataenterer.practitioner"/>
              <definition value="http://fhir.ch/ig/ch-core/StructureDefinition/ch-core-practitionerrole#PractitionerRole.practitioner"/>
              <text value="Erfassende Person"/>
              <type value="group"/>
              <item>
                <linkId value="sender.dataenterer.practitioner.familyName"/>
                <definition value="http://fhir.ch/ig/ch-core/StructureDefinition/ch-core-practitioner#Practitioner.name.family"/>
                <text value="Name"/>
                <type value="string"/>
              </item>
              <item>
                <linkId value="sender.dataenterer.practitioner.givenName"/>
                <definition value="http://fhir.ch/ig/ch-core/StructureDefinition/ch-core-practitioner#Practitioner.name.given"/>
                <text value="Vorname"/>
                <type value="string"/>
              </item>
              <item>
                <linkId value="sender.dataenterer.practitioner.phone"/>
                <definition value="http://fhir.ch/ig/ch-core/StructureDefinition/ch-core-practitioner#Practitioner.telecom.value"/>
                <text value="Telefon"/>
                <type value="string"/>
              </item>
              <item>
                <linkId value="sender.dataenterer.practitioner.email"/>
                <definition value="http://fhir.ch/ig/ch-core/StructureDefinition/ch-core-practitioner#Practitioner.telecom.value"/>
                <text value="E-Mail"/>
                <type value="string"/>
              </item>
            </item>
          </item>
        </item>
        <item>
          <linkId value="receiver"/>
          <definition value="http://fhir.ch/ig/ch-etoc/StructureDefinition/ch-etoc-composition#Composition.extension:receiver"/>
          <text value="Empf&#xE4;nger"/>
          <type value="group"/>
          <item>
            <linkId value="receiver.practitioner"/>
            <definition value="http://fhir.ch/ig/ch-core/StructureDefinition/ch-core-practitionerrole#PractitionerRole.practitioner"/>
            <text value="Empfangende Person"/>
            <type value="group"/>
            <item>
              <linkId value="receiver.practitioner.title"/>
              <definition value="http://fhir.ch/ig/ch-core/StructureDefinition/ch-core-practitioner#Practitioner.name.prefix"/>
              <text value="Titel"/>
              <type value="string"/>
            </item>
            <item>
              <linkId value="receiver.practitioner.familyName"/>
              <definition value="http://fhir.ch/ig/ch-core/StructureDefinition/ch-core-practitioner#Practitioner.name.family"/>
              <text value="Name"/>
              <type value="string"/>
            </item>
            <item>
              <linkId value="receiver.practitioner.givenName"/>
              <definition value="http://fhir.ch/ig/ch-core/StructureDefinition/ch-core-practitioner#Practitioner.name.given"/>
              <text value="Vorname"/>
              <type value="string"/>
            </item>
            <item>
              <linkId value="receiver.practitioner.gln"/>
              <definition value="http://fhir.ch/ig/ch-core/StructureDefinition/ch-core-practitioner#Practitioner.identifier:GLN.value"/>
              <text value="GLN"/>
              <type value="string"/>
            </item>
            <item>
              <linkId value="receiver.practitioner.phone"/>
              <definition value="http://fhir.ch/ig/ch-core/StructureDefinition/ch-core-practitioner#Practitioner.telecom.value"/>
              <text value="Telefon"/>
              <type value="string"/>
            </item>
            <item>
              <linkId value="receiver.practitioner.email"/>
              <definition value="http://fhir.ch/ig/ch-core/StructureDefinition/ch-core-practitioner#Practitioner.telecom.value"/>
              <text value="E-Mail"/>
              <type value="string"/>
            </item>
          </item>
          <item>
            <linkId value="receiver.organization"/>
            <definition value="http://fhir.ch/ig/ch-core/StructureDefinition/ch-core-practitionerrole#PractitionerRole.organization"/>
            <text value="Empfangende Organisation"/>
            <type value="group"/>
            <item>
              <linkId value="receiver.organization.name"/>
              <definition value="http://fhir.ch/ig/ch-core/StructureDefinition/ch-core-organization#Organization.name"/>
              <text value="Name der Organisation"/>
              <type value="string"/>
            </item>
            <item>
              <linkId value="receiver.organization.streetAddressLine"/>
              <definition value="http://fhir.ch/ig/ch-core/StructureDefinition/ch-core-organization#Organization.address.line"/>
              <text value="Strasse, Hausnummer, Postfach etc."/>
              <type value="string"/>
              <repeats value="true"/>
            </item>
            <item>
              <linkId value="receiver.organization.postalCode"/>
              <definition value="http://fhir.ch/ig/ch-core/StructureDefinition/ch-core-organization#Organization.address.postalCode"/>
              <text value="PLZ"/>
              <type value="string"/>
            </item>
            <item>
              <linkId value="receiver.organization.city"/>
              <definition value="http://fhir.ch/ig/ch-core/StructureDefinition/ch-core-organization#Organization.address.city"/>
              <text value="Ort"/>
              <type value="string"/>
            </item>
            <item>
              <linkId value="receiver.organization.country"/>
              <definition value="http://fhir.ch/ig/ch-core/StructureDefinition/ch-core-organization#Organization.address.country"/>
              <text value="Land"/>
              <type value="string"/>
            </item>
          </item>
        </item>
        <item>
          <linkId value="receiverCopies"/>
          <definition value="http://fhir.ch/ig/ch-etoc/StructureDefinition/ch-etoc-composition#Composition.extension:copyReceiver"/>
          <text value="Kopieempf&#xE4;nger"/>
          <type value="group"/>
          <item>
            <linkId value="receiverCopy"/>
            <text value="Kopieempfangende Organisation oder Person"/>
            <type value="group"/>
            <repeats value="true"/>
            <item>
              <linkId value="receiverCopy.organization.name"/>
              <definition value="http://fhir.ch/ig/ch-core/StructureDefinition/ch-core-organization#Organization.name"/>
              <text value="Name der Organisation"/>
              <type value="string"/>
            </item>
            <item>
              <linkId value="receiverCopy.title"/>
              <definition value="http://fhir.ch/ig/ch-core/StructureDefinition/ch-core-humanname#HumanName.prefix"/>
              <text value="Titel"/>
              <type value="string"/>
            </item>
            <item>
              <linkId value="receiverCopy.familyName"/>
              <definition value="http://fhir.ch/ig/ch-core/StructureDefinition/ch-core-humanname#HumanName.family"/>
              <text value="Name"/>
              <type value="string"/>
            </item>
            <item>
              <linkId value="receiverCopy.givenName"/>
              <definition value="http://fhir.ch/ig/ch-core/StructureDefinition/ch-core-humanname#HumanName.given"/>
              <text value="Vorname"/>
              <type value="string"/>
            </item>
            <item>
              <linkId value="receiverCopy.phone"/>
              <definition value="http://hl7.org/fhir/StructureDefinition/ContactPoint#ContactPoint.value"/>
              <text value="Telefon"/>
              <type value="string"/>
            </item>
            <item>
              <linkId value="receiverCopy.email"/>
              <definition value="http://hl7.org/fhir/StructureDefinition/ContactPoint#ContactPoint.value"/>
              <text value="E-Mail"/>
              <type value="string"/>
            </item>
            <item>
              <linkId value="receiverCopy.streetAddressLine"/>
              <definition value="http://fhir.ch/ig/ch-core/StructureDefinition/ch-core-address#Address.line"/>
              <text value="Strasse, Hausnummer, Postfach etc."/>
              <type value="string"/>
              <repeats value="true"/>
            </item>
            <item>
              <linkId value="receiverCopy.postalCode"/>
              <definition value="http://fhir.ch/ig/ch-core/StructureDefinition/ch-core-address#Address.postalCode"/>
              <text value="PLZ"/>
              <type value="string"/>
            </item>
            <item>
              <linkId value="receiverCopy.city"/>
              <definition value="http://fhir.ch/ig/ch-core/StructureDefinition/ch-core-address#Address.city"/>
              <text value="Ort"/>
              <type value="string"/>
            </item>
            <item>
              <linkId value="receiverCopy.country"/>
              <definition value="http://fhir.ch/ig/ch-core/StructureDefinition/ch-core-address#Address.country"/>
              <text value="Land"/>
              <type value="string"/>
            </item>
          </item>
        </item>
        <item>
          <linkId value="appointment"/>
          <definition value="http://fhir.ch/ig/ch-orf/StructureDefinition/ch-orf-servicerequest#ServiceRequest.extension:locationAndTime"/>
          <text value="Ort und Zeit der Durchf&#xFC;hrung der angeforderten Leistung"/>
          <type value="group"/>
          <repeats value="true"/>
          <item>
            <linkId value="appointment.location"/>
            <definition value="http://fhir.ch/ig/ch-orf/StructureDefinition/ch-orf-appointment#Appointment.participant.actor"/>
            <text value="Ort der Durchf&#xFC;hrung"/>
            <type value="group"/>
            <required value="true"/>
            <item>
              <linkId value="appointment.location.name"/>
              <definition value="http://fhir.ch/ig/ch-orf/StructureDefinition/ch-orf-location#Location.name"/>
              <text value="Name"/>
              <type value="string"/>
              <required value="true"/>
            </item>
            <item>
              <linkId value="appointment.location.phone"/>
              <definition value="http://fhir.ch/ig/ch-orf/StructureDefinition/ch-orf-location#Location.telecom.value"/>
              <text value="Telefon"/>
              <type value="string"/>
            </item>
            <item>
              <linkId value="appointment.location.email"/>
              <definition value="http://fhir.ch/ig/ch-orf/StructureDefinition/ch-orf-location#Location.telecom.value"/>
              <text value="E-Mail"/>
              <type value="string"/>
            </item>
            <item>
              <linkId value="appointment.location.streetAddressLine"/>
              <definition value="http://fhir.ch/ig/ch-orf/StructureDefinition/ch-orf-location#Location.address.line"/>
              <text value="Strasse, Hausnummer, Postfach etc."/>
              <type value="string"/>
              <repeats value="true"/>
            </item>
            <item>
              <linkId value="appointment.location.postalCode"/>
              <definition value="http://fhir.ch/ig/ch-orf/StructureDefinition/ch-orf-location#Location.address.postalCode"/>
              <text value="PLZ"/>
              <type value="string"/>
            </item>
            <item>
              <linkId value="appointment.location.city"/>
              <definition value="http://fhir.ch/ig/ch-orf/StructureDefinition/ch-orf-location#Location.address.city"/>
              <text value="Ort"/>
              <type value="string"/>
            </item>
            <item>
              <linkId value="appointment.location.country"/>
              <definition value="http://fhir.ch/ig/ch-orf/StructureDefinition/ch-orf-location#Location.address.country"/>
              <text value="Land"/>
              <type value="string"/>
            </item>
          </item>
          <item>
            <linkId value="appointment.requestedPeriod"/>
            <definition value="http://fhir.ch/ig/ch-orf/StructureDefinition/ch-orf-appointment#Appointment.requestedPeriod"/>
            <text value="Datum und Zeit, wann der Termin bevorzugt geplant werden soll"/>
            <type value="group"/>
            <item>
              <linkId value="appointment.requestedPeriod.start"/>
              <definition value="http://fhir.ch/ig/ch-orf/StructureDefinition/ch-orf-appointment#Appointment.requestedPeriod.start"/>
              <text value="Von"/>
              <type value="dateTime"/>
            </item>
            <item>
              <linkId value="appointment.requestedPeriod.end"/>
              <definition value="http://fhir.ch/ig/ch-orf/StructureDefinition/ch-orf-appointment#Appointment.requestedPeriod.end"/>
              <text value="Bis"/>
              <type value="dateTime"/>
            </item>
          </item>
          <item>
            <linkId value="appointment.status"/>
            <definition value="http://fhir.ch/ig/ch-orf/StructureDefinition/ch-orf-appointment#Appointment.status"/>
            <text value="Status"/>
            <type value="choice"/>
            <required value="true"/>
            <answerOption>
              <valueCoding>
                <system value="http://hl7.org/fhir/appointmentstatus"/>
                <code value="proposed"/>
                <display value="Wunsch des Patienten (vorgeschlagen)"/>
              </valueCoding>
              <initialSelected value="true"/>
            </answerOption>
            <answerOption>
              <valueCoding>
                <system value="http://hl7.org/fhir/appointmentstatus"/>
                <code value="pending"/>
                <display value="Vom Patienten best&#xE4;tigt, aber vom Leistungserbringer noch nicht (ausstehend)"/>
              </valueCoding>
            </answerOption>
            <answerOption>
              <valueCoding>
                <system value="http://hl7.org/fhir/appointmentstatus"/>
                <code value="booked"/>
                <display value="Vom Patienten und Leistungserbringer best&#xE4;tigt (gebucht)"/>
              </valueCoding>
            </answerOption>
          </item>
          <item>
            <linkId value="appointment.patientInstruction"/>
            <definition value="http://fhir.ch/ig/ch-orf/StructureDefinition/ch-orf-appointment#Appointment.patientInstruction"/>
            <text value="Patienteninformation f&#xFC;r diesen Termin"/>
            <type value="string"/>
          </item>
        </item>
        <item>
          <linkId value="purpose"/>
          <text value="Wozu wird der Patient zugewiesen?"/>
          <type value="group"/>
          <repeats value="false"/>
          <item>
            <linkId value="purpose.aim"/>
            <definition value="http://fhir.ch/ig/ch-etoc/StructureDefinition/ch-etoc-servicerequest#ServiceRequest.code.text"/>
            <text value="Ziel"/>
            <type value="string"/>
            <repeats value="true"/>
          </item>
          <item>
            <linkId value="reason.statement"/>
            <definition value="http://fhir.ch/ig/ch-etoc/StructureDefinition/ch-etoc-servicerequest#ServiceRequest.reasonCode.text"/>
            <text value="Begr&#xFC;ndung"/>
            <type value="string"/>
            <repeats value="true"/>
          </item>
        </item>
        <item>
          <linkId value="diagnosisList"/>
          <text value="Diagnosen und Befunde"/>
          <type value="group"/>
          <repeats value="false"/>
          <item>
            <linkId value="diagnosisList.primarydiagnosis"/>
            <text value="Hauptdiagnosen / Probleme"/>
            <type value="group"/>
            <item>
              <linkId value="diagnosisList.primaryDiagnosis.item"/>
              <definition value="http://fhir.ch/ig/ch-etoc/StructureDefinition/ch-etoc-servicerequest#ServiceRequest.reasonReference"/>
              <text value="Hauptdiagnose / Problem"/>
              <type value="string"/>
              <repeats value="true"/>
            </item>
          </item>
          <item>
            <linkId value="diagnosisList.secondarydiagnosis"/>
            <text value="Nebendiagnosen / Probleme"/>
            <type value="group"/>
            <item>
              <linkId value="diagnosisList.secondaryDiagnosis.item"/>
              <definition value="http://fhir.ch/ig/ch-etoc/StructureDefinition/ch-etoc-servicerequest#ServiceRequest.supportingInfo:diagnosis"/>
              <text value="Nebendiagnose / Problem"/>
              <type value="string"/>
              <repeats value="true"/>
            </item>
          </item>
          <item>
            <linkId value="diagnosisList.bodyHeight"/>
            <definition value="http://fhir.ch/ig/ch-etoc/StructureDefinition/ch-etoc-servicerequest#ServiceRequest.supportingInfo:bodyHeight"/>
            <text value="Gr&#xF6;sse (cm)"/>
            <type value="quantity"/>
            <repeats value="false"/>
          </item>
          <item>
            <linkId value="diagnosisList.bodyWeight"/>
            <definition value="http://fhir.ch/ig/ch-etoc/StructureDefinition/ch-etoc-servicerequest#ServiceRequest.supportingInfo:bodyWeight"/>
            <text value="Gewicht (kg)"/>
            <type value="quantity"/>
            <repeats value="false"/>
          </item>
          <item>
            <linkId value="diagnosisList.pregnancy"/>
            <definition value="http://fhir.ch/ig/ch-etoc/StructureDefinition/ch-etoc-servicerequest#ServiceRequest.supportingInfo:pregnancy"/>
            <text value="Schwangerschaft"/>
            <type value="boolean"/>
            <repeats value="false"/>
            <item>
              <linkId value="diagnosisList.pregnancy.expectedDeliveryDate"/>
              <definition value="http://fhir.ch/ig/ch-etoc/StructureDefinition/ch-etoc-servicerequest#ServiceRequest.supportingInfo:pregnancy"/>
              <text value="Erwarteter Geburtstermin"/>
              <type value="dateTime"/>
              <repeats value="false"/>
            </item>
          </item>
        </item>
        <item>
          <linkId value="anamnesis"/>
          <text value="Anamnese"/>
          <type value="group"/>
          <repeats value="false"/>
          <item>
            <linkId value="anamnesis.historyofillnesses"/>
            <definition value="http://fhir.ch/ig/ch-etoc/StructureDefinition/ch-etoc-servicerequest#ServiceRequest.supportingInfo:historyofIllnesses"/>
            <text value="Bisherige Krankheiten und Unf&#xE4;lle"/>
            <type value="text"/>
            <repeats value="false"/>
          </item>
          <item>
            <linkId value="anamnesis.historyofprocedures"/>
            <definition value="http://fhir.ch/ig/ch-etoc/StructureDefinition/ch-etoc-servicerequest#ServiceRequest.supportingInfo:historyofProcedures"/>
            <text value="Bisherige Abkl&#xE4;rungen und Eingriffe"/>
            <type value="text"/>
            <repeats value="false"/>
          </item>
          <item>
            <linkId value="anamnesis.devices"/>
            <definition value="http://fhir.ch/ig/ch-etoc/StructureDefinition/ch-etoc-servicerequest#ServiceRequest.supportingInfo:devices"/>
            <text value="Implantate, Schrittmacher, Neurostimulatoren etc."/>
            <type value="text"/>
            <repeats value="false"/>
          </item>
          <item>
            <linkId value="anamnesis.socialhistory"/>
            <definition value="http://fhir.ch/ig/ch-etoc/StructureDefinition/ch-etoc-servicerequest#ServiceRequest.supportingInfo:socialHistory"/>
            <text value="Sozialanamnese"/>
            <type value="text"/>
            <repeats value="false"/>
          </item>
          <item>
            <linkId value="anamnesis.functionalStatus"/>
            <definition value="http://fhir.ch/ig/ch-etoc/StructureDefinition/ch-etoc-servicerequest#ServiceRequest.supportingInfo:functionalStatus"/>
            <text value="Funktion, Behinderungen"/>
            <type value="text"/>
            <repeats value="false"/>
          </item>
        </item>
        <item>
          <linkId value="medication"/>
          <text value="Aktuelle Medikation"/>
          <type value="group"/>
          <repeats value="false"/>
          <item>
            <linkId value="medication.medicationcard"/>
            <definition value="http://fhir.ch/ig/ch-etoc/StructureDefinition/ch-etoc-servicerequest#ServiceRequest.supportingInfo:medicationcard"/>
            <text value="Medikation"/>
            <type value="string"/>
            <repeats value="true"/>
          </item>
        </item>
        <item>
          <linkId value="allergy"/>
          <text value="Allergien und Intoleranzen"/>
          <type value="group"/>
          <repeats value="false"/>
          <item>
            <linkId value="allergy.allegiesIntolerances"/>
            <definition value="http://fhir.ch/ig/ch-etoc/StructureDefinition/ch-etoc-servicerequest#ServiceRequest.supportingInfo:allergiesIntolerances"/>
            <text value="Allergien / Intoleranzen"/>
            <type value="text"/>
            <repeats value="false"/>
          </item>
        </item>
        <item>
          <linkId value="immunizationstatus"/>
          <text value="Impfungen"/>
          <type value="group"/>
          <repeats value="false"/>
          <item>
            <linkId value="immunizationstatus.immunizations"/>
            <definition value="http://fhir.ch/ig/ch-etoc/StructureDefinition/ch-etoc-servicerequest#ServiceRequest.supportingInfo:immunizations"/>
            <text value="Bisherige Impfungen"/>
            <type value="text"/>
            <repeats value="false"/>
          </item>
        </item>
        <item>
          <linkId value="lab"/>
          <text value="Labor"/>
          <type value="group"/>
          <repeats value="false"/>
          <item>
            <linkId value="lab.labresults"/>
            <definition value="http://fhir.ch/ig/ch-etoc/StructureDefinition/ch-etoc-servicerequest#ServiceRequest.supportingInfo:labresults"/>
            <text value="Laborresultat"/>
            <type value="string"/>
            <repeats value="true"/>
          </item>
        </item>
        <item>
          <linkId value="pathology"/>
          <text value="Pathologie"/>
          <type value="group"/>
          <repeats value="false"/>
          <item>
            <linkId value="pathology.pathologyresults"/>
            <definition value="http://fhir.ch/ig/ch-etoc/StructureDefinition/ch-etoc-servicerequest#ServiceRequest.supportingInfo:pathologyresults"/>
            <text value="Pathologiebefunde"/>
            <type value="text"/>
            <repeats value="false"/>
          </item>
        </item>
        <item>
          <linkId value="imaging"/>
          <text value="Bildgebung"/>
          <type value="group"/>
          <repeats value="false"/>
          <item>
            <linkId value="imaging.imagingresults"/>
            <definition value="http://fhir.ch/ig/ch-etoc/StructureDefinition/ch-etoc-servicerequest#ServiceRequest.supportingInfo:imagingresults"/>
            <text value="Befunde aus der Bildgebung"/>
            <type value="text"/>
            <repeats value="false"/>
          </item>
        </item>
        <item>
          <linkId value="cardiology"/>
          <text value="Kardiologie"/>
          <type value="group"/>
          <repeats value="false"/>
          <item>
            <linkId value="cardiology.cardiologyresults"/>
            <definition value="http://fhir.ch/ig/ch-etoc/StructureDefinition/ch-etoc-servicerequest#ServiceRequest.supportingInfo:cardiologyresults"/>
            <text value="EKG / Kardiologische Befunde"/>
            <type value="text"/>
            <repeats value="false"/>
          </item>
        </item>
        <item>
          <linkId value="carePlans"/>
          <text value="Verlauf"/>
          <type value="group"/>
          <repeats value="false"/>
          <item>
            <linkId value="carePlans.medical"/>
            <definition value="http://fhir.ch/ig/ch-etoc/StructureDefinition/ch-etoc-servicerequest#ServiceRequest.supportingInfo:medicalCarePlan"/>
            <text value="&#xC4;rztlicher Bericht"/>
            <type value="text"/>
            <repeats value="true"/>
          </item>
          <item>
            <linkId value="carePlans.nursing"/>
            <definition value="http://fhir.ch/ig/ch-etoc/StructureDefinition/ch-etoc-servicerequest#ServiceRequest.supportingInfo:nursingCarePlan"/>
            <text value="Pflegebericht"/>
            <type value="text"/>
            <repeats value="true"/>
          </item>
          <item>
            <linkId value="attachments"/>
            <text value="Anhang"/>
            <type value="group"/>
            <repeats value="true"/>
            <item>
              <linkId value="attachtment.title"/>
              <definition value="http://fhir.ch/ig/ch-etoc/StructureDefinition/ch-etoc-media#Media.content.title"/>
              <text value="Dateiname und -endung der angeh&#xE4;ngten Datei (z.B. &quot;shoulder_re_F_Muster_12021988.pdf&quot;)"/>
              <type value="string"/>
              <repeats value="false"/>
            </item>
            <item>
              <linkId value="attachment.data"/>
              <definition value="http://fhir.ch/ig/ch-etoc/StructureDefinition/ch-etoc-media#Media.content.data"/>
              <text value="Daten"/>
              <type value="string"/>
              <repeats value="false"/>
            </item>
          </item>
        </item>
        <item>
          <linkId value="note"/>
          <text value="Bemerkungen"/>
          <type value="group"/>
          <repeats value="false"/>
          <item>
            <linkId value="note.text"/>
            <definition value="http://fhir.ch/ig/ch-etoc/StructureDefinition/ch-etoc-servicerequest#ServiceRequest.note.text"/>
            <text value="Text"/>
            <type value="text"/>
            <required value="false"/>
          </item>
        </item>
      </Questionnaire>
    </resource>
  </entry>
  <entry>
    <fullUrl value="http://example.com/fhir/QuestionnaireResponse/QuestionnaireResponseEtoc"/>
    <resource>
      <QuestionnaireResponse>
        <id value="QuestionnaireResponseEtoc"/>
        <meta>
          <profile value="http://fhir.ch/ig/ch-orf/StructureDefinition/ch-orf-questionnaireresponse"/>
        </meta>
        <text>
          <status value="generated"/><div xmlns="http://www.w3.org/1999/xhtml"><p><b>Generated Narrative</b></p><p><b>questionnaire</b>: <a href="http://fhir.ch/ig/ch-rad-order/Questionnaire/QuestionnaireEtoc">http://fhir.ch/ig/ch-rad-order/Questionnaire/QuestionnaireEtoc</a></p><p><b>status</b>: completed</p><blockquote><p><b>item</b></p><p><b>linkId</b>: order</p><p><b>text</b>: Zuweisung</p><blockquote><p><b>item</b></p><p><b>linkId</b>: order.title</p><p><b>text</b>: Titel</p><h3>Answers</h3><table class="grid"><tr><td>-</td></tr><tr><td>*</td></tr></table></blockquote><blockquote><p><b>item</b></p><p><b>linkId</b>: order.type</p><p><b>text</b>: Typ</p></blockquote><blockquote><p><b>item</b></p><p><b>linkId</b>: order.category</p><p><b>text</b>: Kategorie</p><h3>Answers</h3><table class="grid"><tr><td>-</td></tr><tr><td>*</td></tr></table></blockquote><blockquote><p><b>item</b></p><p><b>linkId</b>: order.placerOrderIdentifier</p><p><b>text</b>: Auftragsnummer des Auftraggebers</p><h3>Answers</h3><table class="grid"><tr><td>-</td></tr><tr><td>*</td></tr></table></blockquote><blockquote><p><b>item</b></p><p><b>linkId</b>: order.placerOrderIdentifierDomain</p><p><b>text</b>: Identifier Domain der Auftragsnummer des Auftraggebers</p><h3>Answers</h3><table class="grid"><tr><td>-</td></tr><tr><td>*</td></tr></table></blockquote><blockquote><p><b>item</b></p><p><b>linkId</b>: order.priority</p><p><b>text</b>: Auftragspriorität</p><h3>Answers</h3><table class="grid"><tr><td>-</td></tr><tr><td>*</td></tr></table></blockquote></blockquote><blockquote><p><b>item</b></p><p><b>linkId</b>: patient</p><p><b>text</b>: Patient</p><blockquote><p><b>item</b></p><p><b>linkId</b>: patient.familyName</p><p><b>text</b>: Name</p><h3>Answers</h3><table class="grid"><tr><td>-</td></tr><tr><td>*</td></tr></table></blockquote><blockquote><p><b>item</b></p><p><b>linkId</b>: patient.maidenName</p><p><b>text</b>: Ledigname</p><h3>Answers</h3><table class="grid"><tr><td>-</td></tr><tr><td>*</td></tr></table></blockquote><blockquote><p><b>item</b></p><p><b>linkId</b>: patient.givenName</p><p><b>text</b>: Vorname</p><h3>Answers</h3><table class="grid"><tr><td>-</td></tr><tr><td>*</td></tr></table></blockquote><blockquote><p><b>item</b></p><p><b>linkId</b>: patient.birthDate</p><p><b>text</b>: Geburtsdatum</p><h3>Answers</h3><table class="grid"><tr><td>-</td></tr><tr><td>*</td></tr></table></blockquote><blockquote><p><b>item</b></p><p><b>linkId</b>: patient.gender</p><p><b>text</b>: Geschlecht</p><h3>Answers</h3><table class="grid"><tr><td>-</td></tr><tr><td>*</td></tr></table></blockquote><blockquote><p><b>item</b></p><p><b>linkId</b>: patient.phone</p><p><b>text</b>: Telefon</p><h3>Answers</h3><table class="grid"><tr><td>-</td></tr><tr><td>*</td></tr></table></blockquote><blockquote><p><b>item</b></p><p><b>linkId</b>: patient.email</p><p><b>text</b>: E-Mail</p><h3>Answers</h3><table class="grid"><tr><td>-</td></tr><tr><td>*</td></tr></table></blockquote><blockquote><p><b>item</b></p><p><b>linkId</b>: patient.streetAddressLine</p><p><b>text</b>: Strasse, Hausnummer, Postfach etc.</p><h3>Answers</h3><table class="grid"><tr><td>-</td></tr><tr><td>*</td></tr><tr><td>*</td></tr></table></blockquote><blockquote><p><b>item</b></p><p><b>linkId</b>: patient.postalCode</p><p><b>text</b>: PLZ</p><h3>Answers</h3><table class="grid"><tr><td>-</td></tr><tr><td>*</td></tr></table></blockquote><blockquote><p><b>item</b></p><p><b>linkId</b>: patient.city</p><p><b>text</b>: Ort</p><h3>Answers</h3><table class="grid"><tr><td>-</td></tr><tr><td>*</td></tr></table></blockquote><blockquote><p><b>item</b></p><p><b>linkId</b>: patient.country</p><p><b>text</b>: Land</p><h3>Answers</h3><table class="grid"><tr><td>-</td></tr><tr><td>*</td></tr></table></blockquote></blockquote><blockquote><p><b>item</b></p><p><b>linkId</b>: coverage</p><p><b>text</b>: Kostenträger</p><blockquote><p><b>item</b></p><p><b>linkId</b>: coverage.kvg</p><p><b>text</b>: Krankenkasse (nach KVG)</p><h3>Items</h3><table class="grid"><tr><td>-</td></tr><tr><td>*</td></tr><tr><td>*</td></tr></table></blockquote></blockquote><blockquote><p><b>item</b></p><p><b>linkId</b>: sender</p><p><b>text</b>: Absender</p><blockquote><p><b>item</b></p><p><b>linkId</b>: sender.author</p><p><b>text</b>: Verantwortlicher</p><h3>Items</h3><table class="grid"><tr><td>-</td></tr><tr><td>*</td></tr><tr><td>*</td></tr></table></blockquote><blockquote><p><b>item</b></p><p><b>linkId</b>: sender.dataenterer</p><p><b>text</b>: Erfasser</p><h3>Items</h3><table class="grid"><tr><td>-</td></tr><tr><td>*</td></tr></table></blockquote></blockquote><blockquote><p><b>item</b></p><p><b>linkId</b>: receiver</p><p><b>text</b>: Empfänger</p><blockquote><p><b>item</b></p><p><b>linkId</b>: receiver.organization</p><p><b>text</b>: Empfangende Organisation</p><h3>Items</h3><table class="grid"><tr><td>-</td></tr><tr><td>*</td></tr><tr><td>*</td></tr><tr><td>*</td></tr><tr><td>*</td></tr><tr><td>*</td></tr></table></blockquote></blockquote><blockquote><p><b>item</b></p><p><b>linkId</b>: receiverCopies</p><p><b>text</b>: Kopieempfänger</p><blockquote><p><b>item</b></p><p><b>linkId</b>: receiverCopy</p><p><b>text</b>: Kopieempfangende Organisation oder Person</p><h3>Items</h3><table class="grid"><tr><td>-</td></tr><tr><td>*</td></tr><tr><td>*</td></tr><tr><td>*</td></tr><tr><td>*</td></tr><tr><td>*</td></tr><tr><td>*</td></tr><tr><td>*</td></tr><tr><td>*</td></tr></table></blockquote></blockquote><blockquote><p><b>item</b></p><p><b>linkId</b>: requestedEncounter</p><p><b>text</b>: Patientenaufnahme</p><blockquote><p><b>item</b></p><p><b>linkId</b>: requestedEncounter.class</p><p><b>text</b>: Voraussichtlich: Ambulant / Stationär / Notfall</p><h3>Answers</h3><table class="grid"><tr><td>-</td></tr><tr><td>*</td></tr></table></blockquote></blockquote><blockquote><p><b>item</b></p><p><b>linkId</b>: purpose</p><p><b>text</b>: Wozu wird der Patient zugewiesen?</p><blockquote><p><b>item</b></p><p><b>linkId</b>: purpose.aim</p><p><b>text</b>: Ziel</p><h3>Answers</h3><table class="grid"><tr><td>-</td></tr><tr><td>*</td></tr></table></blockquote><blockquote><p><b>item</b></p><p><b>linkId</b>: reason.statement</p><p><b>text</b>: Begründung</p><h3>Answers</h3><table class="grid"><tr><td>-</td></tr><tr><td>*</td></tr></table></blockquote></blockquote><blockquote><p><b>item</b></p><p><b>linkId</b>: diagnosisList</p><p><b>text</b>: Diagnosen und Befunde</p><blockquote><p><b>item</b></p><p><b>linkId</b>: diagnosisList.primarydiagnosis</p><p><b>text</b>: Hauptdiagnosen / Probleme</p><h3>Items</h3><table class="grid"><tr><td>-</td></tr><tr><td>*</td></tr></table></blockquote><blockquote><p><b>item</b></p><p><b>linkId</b>: diagnosisList.secondarydiagnosis</p><p><b>text</b>: Nebendiagnosen / Probleme</p><h3>Items</h3><table class="grid"><tr><td>-</td></tr><tr><td>*</td></tr></table></blockquote><blockquote><p><b>item</b></p><p><b>linkId</b>: diagnosisList.bodyHeight</p><p><b>definition</b>: <a href="http://fhir.ch/ig/ch-etoc/StructureDefinition/ch-etoc-servicerequest#ServiceRequest.supportingInfo:bodyHeight">http://fhir.ch/ig/ch-etoc/StructureDefinition/ch-etoc-servicerequest#ServiceRequest.supportingInfo:bodyHeight</a></p><p><b>text</b>: Grösse (cm)</p></blockquote><blockquote><p><b>item</b></p><p><b>linkId</b>: diagnosisList.bodyWeight</p><p><b>definition</b>: <a href="http://fhir.ch/ig/ch-etoc/StructureDefinition/ch-etoc-servicerequest#ServiceRequest.supportingInfo:bodyWeight">http://fhir.ch/ig/ch-etoc/StructureDefinition/ch-etoc-servicerequest#ServiceRequest.supportingInfo:bodyWeight</a></p><p><b>text</b>: Gewicht (kg)</p></blockquote><blockquote><p><b>item</b></p><p><b>linkId</b>: diagnosisList.pregnancy</p><p><b>definition</b>: <a href="http://fhir.ch/ig/ch-etoc/StructureDefinition/ch-etoc-servicerequest#ServiceRequest.supportingInfo:pregnancy">http://fhir.ch/ig/ch-etoc/StructureDefinition/ch-etoc-servicerequest#ServiceRequest.supportingInfo:pregnancy</a></p><p><b>text</b>: Schwangerschaft</p><h3>Items</h3><table class="grid"><tr><td>-</td></tr><tr><td>*</td></tr></table></blockquote></blockquote><blockquote><p><b>item</b></p><p><b>linkId</b>: anamnesis</p><p><b>text</b>: Anamnese</p><blockquote><p><b>item</b></p><p><b>linkId</b>: anamnesis.historyofillnesses</p><p><b>definition</b>: <a href="http://fhir.ch/ig/ch-etoc/StructureDefinition/ch-etoc-servicerequest#ServiceRequest.supportingInfo:historyofIllnesses">http://fhir.ch/ig/ch-etoc/StructureDefinition/ch-etoc-servicerequest#ServiceRequest.supportingInfo:historyofIllnesses</a></p><p><b>text</b>: Bisherige Krankheiten und Unfälle</p><h3>Answers</h3><table class="grid"><tr><td>-</td></tr><tr><td>*</td></tr></table></blockquote><blockquote><p><b>item</b></p><p><b>linkId</b>: anamnesis.historyofprocedures</p><p><b>definition</b>: <a href="http://fhir.ch/ig/ch-etoc/StructureDefinition/ch-etoc-servicerequest#ServiceRequest.supportingInfo:historyofProcedures">http://fhir.ch/ig/ch-etoc/StructureDefinition/ch-etoc-servicerequest#ServiceRequest.supportingInfo:historyofProcedures</a></p><p><b>text</b>: Bisherige Abklärungen und Eingriffe</p></blockquote><blockquote><p><b>item</b></p><p><b>linkId</b>: anamnesis.devices</p><p><b>definition</b>: <a href="http://fhir.ch/ig/ch-etoc/StructureDefinition/ch-etoc-servicerequest#ServiceRequest.supportingInfo:devices">http://fhir.ch/ig/ch-etoc/StructureDefinition/ch-etoc-servicerequest#ServiceRequest.supportingInfo:devices</a></p><p><b>text</b>: Implantate, Schrittmacher, Neurostimulatoren etc.</p></blockquote><blockquote><p><b>item</b></p><p><b>linkId</b>: anamnesis.socialhistory</p><p><b>definition</b>: <a href="http://fhir.ch/ig/ch-etoc/StructureDefinition/ch-etoc-servicerequest#ServiceRequest.supportingInfo:socialHistory">http://fhir.ch/ig/ch-etoc/StructureDefinition/ch-etoc-servicerequest#ServiceRequest.supportingInfo:socialHistory</a></p><p><b>text</b>: Sozialanamnese</p></blockquote><blockquote><p><b>item</b></p><p><b>linkId</b>: anamnesis.functionalStatus</p><p><b>definition</b>: <a href="http://fhir.ch/ig/ch-etoc/StructureDefinition/ch-etoc-servicerequest#ServiceRequest.supportingInfo:functionalStatus">http://fhir.ch/ig/ch-etoc/StructureDefinition/ch-etoc-servicerequest#ServiceRequest.supportingInfo:functionalStatus</a></p><p><b>text</b>: Funktion, Behinderungen</p></blockquote></blockquote><blockquote><p><b>item</b></p><p><b>linkId</b>: medication</p><p><b>text</b>: Aktuelle Medikation</p><blockquote><p><b>item</b></p><p><b>linkId</b>: medication.medicationcard</p><p><b>definition</b>: <a href="http://fhir.ch/ig/ch-etoc/StructureDefinition/ch-etoc-servicerequest#ServiceRequest.supportingInfo:medicationcard">http://fhir.ch/ig/ch-etoc/StructureDefinition/ch-etoc-servicerequest#ServiceRequest.supportingInfo:medicationcard</a></p><p><b>text</b>: Medikation</p><h3>Answers</h3><table class="grid"><tr><td>-</td></tr><tr><td>*</td></tr><tr><td>*</td></tr><tr><td>*</td></tr></table></blockquote></blockquote><blockquote><p><b>item</b></p><p><b>linkId</b>: allergy</p><p><b>text</b>: Allergien und Intoleranzen</p><h3>Items</h3><table class="grid"><tr><td>-</td><td><b>LinkId</b></td><td><b>Definition</b></td><td><b>Text</b></td></tr><tr><td>*</td><td>allergy.allegiesIntolerances</td><td><a href="http://fhir.ch/ig/ch-etoc/StructureDefinition/ch-etoc-servicerequest#ServiceRequest.supportingInfo:allergiesIntolerances">http://fhir.ch/ig/ch-etoc/StructureDefinition/ch-etoc-servicerequest#ServiceRequest.supportingInfo:allergiesIntolerances</a></td><td>Allergie / Intoleranz</td></tr></table></blockquote><blockquote><p><b>item</b></p><p><b>linkId</b>: immunizationstatus</p><p><b>text</b>: Impfungen</p><h3>Items</h3><table class="grid"><tr><td>-</td><td><b>LinkId</b></td><td><b>Definition</b></td><td><b>Text</b></td></tr><tr><td>*</td><td>immunizationstatus.immunizations</td><td><a href="http://fhir.ch/ig/ch-etoc/StructureDefinition/ch-etoc-servicerequest#ServiceRequest.supportingInfo:immunizations">http://fhir.ch/ig/ch-etoc/StructureDefinition/ch-etoc-servicerequest#ServiceRequest.supportingInfo:immunizations</a></td><td>Bisherige Impfungen</td></tr></table></blockquote><blockquote><p><b>item</b></p><p><b>linkId</b>: lab</p><p><b>text</b>: Labor</p><h3>Items</h3><table class="grid"><tr><td>-</td><td><b>LinkId</b></td><td><b>Definition</b></td><td><b>Text</b></td></tr><tr><td>*</td><td>lab.labresults</td><td><a href="http://fhir.ch/ig/ch-etoc/StructureDefinition/ch-etoc-servicerequest#ServiceRequest.supportingInfo:labresults">http://fhir.ch/ig/ch-etoc/StructureDefinition/ch-etoc-servicerequest#ServiceRequest.supportingInfo:labresults</a></td><td>Laborresultat</td></tr></table></blockquote><blockquote><p><b>item</b></p><p><b>linkId</b>: pathology</p><p><b>text</b>: Pathologie</p><h3>Items</h3><table class="grid"><tr><td>-</td><td><b>LinkId</b></td><td><b>Definition</b></td><td><b>Text</b></td></tr><tr><td>*</td><td>pathology.pathologyresults</td><td><a href="http://fhir.ch/ig/ch-etoc/StructureDefinition/ch-etoc-servicerequest#ServiceRequest.supportingInfo:pathologyresults">http://fhir.ch/ig/ch-etoc/StructureDefinition/ch-etoc-servicerequest#ServiceRequest.supportingInfo:pathologyresults</a></td><td>Pathologiebefunde</td></tr></table></blockquote><blockquote><p><b>item</b></p><p><b>linkId</b>: imaging</p><p><b>text</b>: Bildgebung</p><h3>Items</h3><table class="grid"><tr><td>-</td><td><b>LinkId</b></td><td><b>Text</b></td></tr><tr><td>*</td><td>imaging.imagingresults</td><td>Befund aus der Bildgebung</td></tr></table></blockquote><blockquote><p><b>item</b></p><p><b>linkId</b>: cardiology</p><p><b>text</b>: Kardiologie</p><blockquote><p><b>item</b></p><p><b>linkId</b>: cardiology.cardiologyresults</p><p><b>text</b>: EKG / Kardiologischer Befund</p><h3>Answers</h3><table class="grid"><tr><td>-</td></tr><tr><td>*</td></tr></table></blockquote></blockquote><blockquote><p><b>item</b></p><p><b>linkId</b>: carePlans</p><p><b>text</b>: Verlauf</p><blockquote><p><b>item</b></p><p><b>linkId</b>: carePlans.medical</p><p><b>text</b>: Ärztlicher Bericht</p></blockquote><blockquote><p><b>item</b></p><p><b>linkId</b>: carePlans.nursing</p><p><b>text</b>: Pflegebericht</p></blockquote><blockquote><p><b>item</b></p><p><b>linkId</b>: attachments</p><p><b>text</b>: Anhang</p><h3>Items</h3><table class="grid"><tr><td>-</td></tr><tr><td>*</td></tr><tr><td>*</td></tr></table></blockquote></blockquote><blockquote><p><b>item</b></p><p><b>linkId</b>: note</p><p><b>text</b>: Bemerkungen</p><blockquote><p><b>item</b></p><p><b>linkId</b>: note.text</p><p><b>text</b>: Text</p><h3>Answers</h3><table class="grid"><tr><td>-</td></tr><tr><td>*</td></tr></table></blockquote></blockquote></div>
        </text>
        <questionnaire value="http://fhir.ch/ig/ch-rad-order/Questionnaire/QuestionnaireEtoc"/>
        <status value="completed"/>
        <item>
          <linkId value="order"/>
          <text value="Zuweisung"/>
          <item>
            <linkId value="order.title"/>
            <text value="Titel"/>
            <answer>
              <valueString value="Notfallzuweisung"/>
            </answer>
          </item>
          <item>
            <linkId value="order.type"/>
            <text value="Typ"/>
          </item>
          <item>
            <linkId value="order.category"/>
            <text value="Kategorie"/>
            <answer>
              <valueCoding>
                <system value="http://snomed.info/sct"/>
                <code value="721927009"/>
                <display value="Order (record artifact)"/>
              </valueCoding>
            </answer>
          </item>
          <item>
            <linkId value="order.placerOrderIdentifier"/>
            <text value="Auftragsnummer des Auftraggebers"/>
            <answer>
              <valueString value="12345"/>
            </answer>
          </item>
          <item>
            <linkId value="order.placerOrderIdentifierDomain"/>
            <text value="Identifier Domain der Auftragsnummer des Auftraggebers"/>
            <answer>
              <valueString value="urn:oid:1.3.4.5.6.7"/>
            </answer>
          </item>
          <item>
            <linkId value="order.priority"/>
            <text value="Auftragspriorit&#xE4;t"/>
            <answer>
              <valueCoding>
                <system value="http://hl7.org/fhir/request-priority"/>
                <code value="urgent"/>
                <display value="Die Anfrage hat normale Priorit&#xE4;t."/>
              </valueCoding>
            </answer>
          </item>
        </item>
        <item>
          <linkId value="patient"/>
          <text value="Patient"/>
          <item>
            <linkId value="patient.familyName"/>
            <text value="Name"/>
            <answer>
              <valueString value="Ufferer"/>
            </answer>
          </item>
          <item>
            <linkId value="patient.maidenName"/>
            <text value="Ledigname"/>
            <answer>
              <valueString value="Leidend"/>
            </answer>
          </item>
          <item>
            <linkId value="patient.givenName"/>
            <text value="Vorname"/>
            <answer>
              <valueString value="Susanna"/>
            </answer>
          </item>
          <item>
            <linkId value="patient.birthDate"/>
            <text value="Geburtsdatum"/>
            <answer>
              <valueDate value="1970-03-14"/>
            </answer>
          </item>
          <item>
            <linkId value="patient.gender"/>
            <text value="Geschlecht"/>
            <answer>
              <valueCoding>
                <system value="http://hl7.org/fhir/administrative-gender"/>
                <code value="female"/>
              </valueCoding>
            </answer>
          </item>
          <item>
            <linkId value="patient.phone"/>
            <text value="Telefon"/>
            <answer>
              <valueString value="+41 79 979 79 79"/>
            </answer>
          </item>
          <item>
            <linkId value="patient.email"/>
            <text value="E-Mail"/>
            <answer>
              <valueString value="susanna@ufferer.ch"/>
            </answer>
          </item>
          <item>
            <linkId value="patient.streetAddressLine"/>
            <text value="Strasse, Hausnummer, Postfach etc."/>
            <answer>
              <valueString value="Musterweg"/>
            </answer>
            <answer>
              <valueString value="6a"/>
            </answer>
          </item>
          <item>
            <linkId value="patient.postalCode"/>
            <text value="PLZ"/>
            <answer>
              <valueString value="8000"/>
            </answer>
          </item>
          <item>
            <linkId value="patient.city"/>
            <text value="Ort"/>
            <answer>
              <valueString value="Z&#xFC;rich"/>
            </answer>
          </item>
          <item>
            <linkId value="patient.country"/>
            <text value="Land"/>
            <answer>
              <valueString value="Schweiz"/>
            </answer>
          </item>
        </item>
        <item>
          <linkId value="coverage"/>
          <text value="Kostentr&#xE4;ger"/>
          <item>
            <linkId value="coverage.kvg"/>
            <text value="Krankenkasse (nach KVG)"/>
            <item>
              <linkId value="coverage.kvg.name"/>
              <text value="Name der Versicherung"/>
              <answer>
                <valueString value="Sanitas"/>
              </answer>
            </item>
            <item>
              <linkId value="coverage.kvg.insuranceCardNumber"/>
              <text value="Kennnummer der Versichertenkarte"/>
              <answer>
                <valueString value="80756015090002647590"/>
              </answer>
            </item>
          </item>
        </item>
        <item>
          <linkId value="sender"/>
          <text value="Absender"/>
          <item>
            <linkId value="sender.author"/>
            <text value="Verantwortlicher"/>
            <item>
              <linkId value="sender.author.practitioner"/>
              <text value="Verantwortliche Person"/>
              <item>
                <linkId value="sender.author.practitioner.title"/>
                <text value="Titel"/>
                <answer>
                  <valueString value="Dr. med."/>
                </answer>
              </item>
              <item>
                <linkId value="sender.author.practitioner.familyName"/>
                <text value="Name"/>
                <answer>
                  <valueString value="Rderplacer"/>
                </answer>
              </item>
              <item>
                <linkId value="sender.author.practitioner.givenName"/>
                <text value="Vorname"/>
                <answer>
                  <valueString value="Ottilie"/>
                </answer>
              </item>
              <item>
                <linkId value="sender.author.practitioner.gln"/>
                <text value="GLN"/>
                <answer>
                  <valueString value="7601000034321"/>
                </answer>
              </item>
              <item>
                <linkId value="sender.author.practitioner.phone"/>
                <text value="Telefon"/>
                <answer>
                  <valueString value="+41 44 333 22 11"/>
                </answer>
              </item>
              <item>
                <linkId value="sender.author.practitioner.email"/>
                <text value="E-Mail"/>
                <answer>
                  <valueString value="o.rderplacer@happydoctors.ch"/>
                </answer>
              </item>
            </item>
            <item>
              <linkId value="sender.author.organization"/>
              <text value="Verantwortliche Organisation"/>
              <item>
                <linkId value="sender.author.organization.name"/>
                <text value="Name der Organisation"/>
                <answer>
                  <valueString value="Praxis Happy Doctors"/>
                </answer>
              </item>
              <item>
                <linkId value="sender.author.organization.streetAddressLine"/>
                <text value="Strasse, Hausnummer, Postfach etc."/>
                <answer>
                  <valueString value="Kantonsstrasse 14"/>
                </answer>
                <answer>
                  <valueString value="Postfach 14"/>
                </answer>
              </item>
              <item>
                <linkId value="sender.author.organization.postalCode"/>
                <text value="PLZ"/>
                <answer>
                  <valueString value="8000"/>
                </answer>
              </item>
              <item>
                <linkId value="sender.author.organization.city"/>
                <text value="Ort"/>
                <answer>
                  <valueString value="Z&#xFC;rich"/>
                </answer>
              </item>
              <item>
                <linkId value="sender.author.organization.country"/>
                <text value="Land"/>
                <answer>
                  <valueString value="Schweiz"/>
                </answer>
              </item>
            </item>
          </item>
          <item>
            <linkId value="sender.dataenterer"/>
            <text value="Erfasser"/>
            <item>
              <linkId value="sender.dataenterer.practitioner"/>
              <text value="Erfassende Person"/>
              <item>
                <linkId value="sender.dataenterer.practitioner.familyName"/>
                <text value="Name"/>
                <answer>
                  <valueString value="Ataenterer"/>
                </answer>
              </item>
              <item>
                <linkId value="sender.dataenterer.practitioner.givenName"/>
                <text value="Vorname"/>
                <answer>
                  <valueString value="Doris"/>
                </answer>
              </item>
              <item>
                <linkId value="sender.dataenterer.practitioner.phone"/>
                <text value="Telefon"/>
                <answer>
                  <valueString value="+41 44 333 22 11"/>
                </answer>
              </item>
              <item>
                <linkId value="sender.dataenterer.practitioner.email"/>
                <text value="E-Mail"/>
                <answer>
                  <valueString value="d.ataenterer@happydoctors.ch"/>
                </answer>
              </item>
            </item>
          </item>
        </item>
        <item>
          <linkId value="receiver"/>
          <text value="Empf&#xE4;nger"/>
          <item>
            <linkId value="receiver.organization"/>
            <text value="Empfangende Organisation"/>
            <item>
              <linkId value="receiver.organization.name"/>
              <text value="Name der Organisation"/>
              <answer>
                <valueString value="Klinik Happy Hospital"/>
              </answer>
            </item>
            <item>
              <linkId value="receiver.organization.streetAddressLine"/>
              <text value="Strasse, Hausnummer, Postfach etc."/>
              <answer>
                <valueString value="Seestrasse 133"/>
              </answer>
              <answer>
                <valueString value="Haus C"/>
              </answer>
            </item>
            <item>
              <linkId value="receiver.organization.postalCode"/>
              <text value="PLZ"/>
              <answer>
                <valueString value="8000"/>
              </answer>
            </item>
            <item>
              <linkId value="receiver.organization.city"/>
              <text value="Ort"/>
              <answer>
                <valueString value="Z&#xFC;rich"/>
              </answer>
            </item>
            <item>
              <linkId value="receiver.organization.country"/>
              <text value="Land"/>
              <answer>
                <valueString value="Schweiz"/>
              </answer>
            </item>
          </item>
        </item>
        <item>
          <linkId value="receiverCopies"/>
          <text value="Kopieempf&#xE4;nger"/>
          <item>
            <linkId value="receiverCopy"/>
            <text value="Kopieempfangende Organisation oder Person"/>
            <item>
              <linkId value="receiverCopy.familyName"/>
              <text value="Name"/>
              <answer>
                <valueString value="Ufferer"/>
              </answer>
            </item>
            <item>
              <linkId value="receiverCopy.givenName"/>
              <text value="Vorname"/>
              <answer>
                <valueString value="Susanna"/>
              </answer>
            </item>
            <item>
              <linkId value="receiverCopy.phone"/>
              <text value="Telefon"/>
              <answer>
                <valueString value="+41 79 979 79 79"/>
              </answer>
            </item>
            <item>
              <linkId value="receiverCopy.email"/>
              <text value="E-Mail"/>
              <answer>
                <valueString value="susanna@ufferer.ch"/>
              </answer>
            </item>
            <item>
              <linkId value="receiverCopy.streetAddressLine"/>
              <text value="Strasse, Hausnummer, Postfach etc."/>
              <answer>
                <valueString value="Musterweg"/>
              </answer>
              <answer>
                <valueString value="6a"/>
              </answer>
            </item>
            <item>
              <linkId value="receiverCopy.postalCode"/>
              <text value="PLZ"/>
              <answer>
                <valueString value="8000"/>
              </answer>
            </item>
            <item>
              <linkId value="receiverCopy.city"/>
              <text value="Ort"/>
              <answer>
                <valueString value="Z&#xFC;rich"/>
              </answer>
            </item>
            <item>
              <linkId value="receiverCopy.country"/>
              <text value="Land"/>
              <answer>
                <valueString value="Schweiz"/>
              </answer>
            </item>
          </item>
        </item>
        <item>
          <linkId value="requestedEncounter"/>
          <text value="Patientenaufnahme"/>
          <item>
            <linkId value="requestedEncounter.class"/>
            <text value="Voraussichtlich: Ambulant / Station&#xE4;r / Notfall"/>
            <answer>
              <valueCoding>
                <system value="http://terminology.hl7.org/CodeSystem/v3-ActCode"/>
                <code value="EMER"/>
                <display value="Notfall"/>
              </valueCoding>
            </answer>
          </item>
        </item>
        <item>
          <linkId value="purpose"/>
          <text value="Wozu wird der Patient zugewiesen?"/>
          <item>
            <linkId value="purpose.aim"/>
            <text value="Ziel"/>
            <answer>
              <valueString value="Abkl&#xE4;rung akuter Thoraxschmerzen"/>
            </answer>
          </item>
          <item>
            <linkId value="reason.statement"/>
            <text value="Begr&#xFC;ndung"/>
            <answer>
              <valueString value="Verdacht auf Vorderwandinfarkt"/>
            </answer>
          </item>
        </item>
        <item>
          <linkId value="diagnosisList"/>
          <text value="Diagnosen und Befunde"/>
          <item>
            <linkId value="diagnosisList.primarydiagnosis"/>
            <text value="Hauptdiagnosen / Probleme"/>
            <item>
              <linkId value="diagnosisList.primaryDiagnosis.item"/>
              <definition value="http://fhir.ch/ig/ch-etoc/StructureDefinition/ch-etoc-servicerequest#ServiceRequest.reasonReference"/>
              <text value="Hauptdiagnose / Problem"/>
              <answer>
                <valueString value="St. nach Bypass 2007"/>
              </answer>
            </item>
          </item>
          <item>
            <linkId value="diagnosisList.secondarydiagnosis"/>
            <text value="Nebendiagnosen / Probleme"/>
            <item>
              <linkId value="diagnosisList.secondaryDiagnosis.item"/>
              <text value="Nebendiagnose / Problem"/>
              <answer>
                <valueString value="Hypertonie (Syst um 180 mm HG)"/>
              </answer>
              <answer>
                <valueString value="Hypercholesterin&#xE4;mie seit Jahren"/>
              </answer>
            </item>
          </item>
          <item>
            <linkId value="diagnosisList.bodyHeight"/>
            <definition value="http://fhir.ch/ig/ch-etoc/StructureDefinition/ch-etoc-servicerequest#ServiceRequest.supportingInfo:bodyHeight"/>
            <text value="Gr&#xF6;sse (cm)"/>
          </item>
          <item>
            <linkId value="diagnosisList.bodyWeight"/>
            <definition value="http://fhir.ch/ig/ch-etoc/StructureDefinition/ch-etoc-servicerequest#ServiceRequest.supportingInfo:bodyWeight"/>
            <text value="Gewicht (kg)"/>
          </item>
          <item>
            <linkId value="diagnosisList.pregnancy"/>
            <definition value="http://fhir.ch/ig/ch-etoc/StructureDefinition/ch-etoc-servicerequest#ServiceRequest.supportingInfo:pregnancy"/>
            <text value="Schwangerschaft"/>
            <item>
              <linkId value="diagnosisList.pregnancy.expectedDeliveryDate"/>
              <definition value="http://fhir.ch/ig/ch-etoc/StructureDefinition/ch-etoc-servicerequest#ServiceRequest.supportingInfo:pregnancy"/>
              <text value="Erwarteter Geburtstermin"/>
            </item>
          </item>
        </item>
        <item>
          <linkId value="anamnesis"/>
          <text value="Anamnese"/>
          <item>
            <linkId value="anamnesis.historyofillnesses"/>
            <definition value="http://fhir.ch/ig/ch-etoc/StructureDefinition/ch-etoc-servicerequest#ServiceRequest.supportingInfo:historyofIllnesses"/>
            <text value="Bisherige Krankheiten und Unf&#xE4;lle"/>
            <answer>
              <valueString value="Endokarditis 1999"/>
            </answer>
          </item>
          <item>
            <linkId value="anamnesis.historyofprocedures"/>
            <definition value="http://fhir.ch/ig/ch-etoc/StructureDefinition/ch-etoc-servicerequest#ServiceRequest.supportingInfo:historyofProcedures"/>
            <text value="Bisherige Abkl&#xE4;rungen und Eingriffe"/>
          </item>
          <item>
            <linkId value="anamnesis.devices"/>
            <definition value="http://fhir.ch/ig/ch-etoc/StructureDefinition/ch-etoc-servicerequest#ServiceRequest.supportingInfo:devices"/>
            <text value="Implantate, Schrittmacher, Neurostimulatoren etc."/>
          </item>
          <item>
            <linkId value="anamnesis.socialhistory"/>
            <definition value="http://fhir.ch/ig/ch-etoc/StructureDefinition/ch-etoc-servicerequest#ServiceRequest.supportingInfo:socialHistory"/>
            <text value="Sozialanamnese"/>
          </item>
          <item>
            <linkId value="anamnesis.functionalStatus"/>
            <definition value="http://fhir.ch/ig/ch-etoc/StructureDefinition/ch-etoc-servicerequest#ServiceRequest.supportingInfo:functionalStatus"/>
            <text value="Funktion, Behinderungen"/>
          </item>
        </item>
        <item>
          <linkId value="medication"/>
          <text value="Aktuelle Medikation"/>
          <item>
            <linkId value="medication.medicationcard"/>
            <definition value="http://fhir.ch/ig/ch-etoc/StructureDefinition/ch-etoc-servicerequest#ServiceRequest.supportingInfo:medicationcard"/>
            <text value="Medikation"/>
            <answer>
              <valueString value="Erdabyclor 20/25 mg 1/2-0-0-0"/>
            </answer>
            <answer>
              <valueString value="Morphin 5 mg i.v.; 16h30"/>
            </answer>
            <answer>
              <valueString value="Nitroglycerin 0.8 mg s.L.; 16h15"/>
            </answer>
          </item>
        </item>
        <item>
          <linkId value="allergy"/>
          <text value="Allergien und Intoleranzen"/>
          <item>
            <linkId value="allergy.allegiesIntolerances"/>
            <definition value="http://fhir.ch/ig/ch-etoc/StructureDefinition/ch-etoc-servicerequest#ServiceRequest.supportingInfo:allergiesIntolerances"/>
            <text value="Allergie / Intoleranz"/>
          </item>
        </item>
        <item>
          <linkId value="immunizationstatus"/>
          <text value="Impfungen"/>
          <item>
            <linkId value="immunizationstatus.immunizations"/>
            <definition value="http://fhir.ch/ig/ch-etoc/StructureDefinition/ch-etoc-servicerequest#ServiceRequest.supportingInfo:immunizations"/>
            <text value="Bisherige Impfungen"/>
          </item>
        </item>
        <item>
          <linkId value="lab"/>
          <text value="Labor"/>
          <item>
            <linkId value="lab.labresults"/>
            <definition value="http://fhir.ch/ig/ch-etoc/StructureDefinition/ch-etoc-servicerequest#ServiceRequest.supportingInfo:labresults"/>
            <text value="Laborresultat"/>
          </item>
        </item>
        <item>
          <linkId value="pathology"/>
          <text value="Pathologie"/>
          <item>
            <linkId value="pathology.pathologyresults"/>
            <definition value="http://fhir.ch/ig/ch-etoc/StructureDefinition/ch-etoc-servicerequest#ServiceRequest.supportingInfo:pathologyresults"/>
            <text value="Pathologiebefunde"/>
          </item>
        </item>
        <item>
          <linkId value="imaging"/>
          <text value="Bildgebung"/>
          <item>
            <linkId value="imaging.imagingresults"/>
            <text value="Befund aus der Bildgebung"/>
          </item>
        </item>
        <item>
          <linkId value="cardiology"/>
          <text value="Kardiologie"/>
          <item>
            <linkId value="cardiology.cardiologyresults"/>
            <text value="EKG / Kardiologischer Befund"/>
            <answer>
              <valueString value="ST-Hebungen V1-V5"/>
            </answer>
          </item>
        </item>
        <item>
          <linkId value="carePlans"/>
          <text value="Verlauf"/>
          <item>
            <linkId value="carePlans.medical"/>
            <text value="&#xC4;rztlicher Bericht"/>
          </item>
          <item>
            <linkId value="carePlans.nursing"/>
            <text value="Pflegebericht"/>
          </item>
          <item>
            <linkId value="attachments"/>
            <text value="Anhang"/>
            <item>
              <linkId value="attachtment.title"/>
              <text value="Dateiname und -endung der angeh&#xE4;ngten Datei (z.B. &quot;shoulder_re_F_Muster_12021988.pdf&quot;)"/>
              <answer>
                <valueString value="EKG_09062021.pdf"/>
              </answer>
            </item>
            <item>
              <linkId value="attachment.data"/>
              <text value="Daten"/>
              <answer>
                <valueString value="324nnvsdafw3qwef3"/>
              </answer>
            </item>
          </item>
        </item>
        <item>
          <linkId value="note"/>
          <text value="Bemerkungen"/>
          <item>
            <linkId value="note.text"/>
            <text value="Text"/>
            <answer>
              <valueString value="Patient ist sehr &#xE4;ngstlich"/>
            </answer>
          </item>
        </item>
      </QuestionnaireResponse>
    </resource>
  </entry>
  <entry>
    <fullUrl value="http://example.com/fhir/ServiceRequest/ServiceRequestEtoc"/>
    <resource>
      <ServiceRequest>
        <id value="ServiceRequestEtoc"/>
        <meta>
          <profile value="http://fhir.ch/ig/ch-etoc/StructureDefinition/ch-etoc-servicerequest"/>
        </meta>
        <text>
          <status value="extensions"/><div xmlns="http://www.w3.org/1999/xhtml"><p><b>Generated Narrative</b></p><p><b>CH ORF Location and Time</b>: <a href="#Appointment_AppointmentHospitalStay">See above (Appointment/AppointmentHospitalStay)</a></p><p><b>identifier</b>: Placer Identifier: 12345</p><p><b>status</b>: active</p><p><b>intent</b>: order</p><p><b>priority</b>: routine</p><p><b>code</b>: <span title="Codes: ">Abklärung akuter Thoraxschmerzen</span></p><p><b>subject</b>: <a href="#Patient_SUfferer">See above (Patient/SUfferer)</a></p><p><b>requester</b>: <a href="#PractitionerRole_ORderplacerHappyDoctors">See above (PractitionerRole/ORderplacerHappyDoctors)</a></p><p><b>reasonCode</b>: <span title="Codes: ">Verdacht auf Myokardinfarkt</span></p><p><b>reasonReference</b>: <a href="#Condition_PrimaryDiagnosis">See above (Condition/PrimaryDiagnosis)</a></p><p><b>insurance</b>: <a href="#Coverage_CoverageKVG">See above (Coverage/CoverageKVG)</a></p><p><b>supportingInfo</b>: </p><ul><li><a href="#Observation_BodyHeight">See above (Observation/BodyHeight)</a></li><li><a href="#Observation_BodyWeight">See above (Observation/BodyWeight)</a></li><li><a href="#Condition_SecondaryDiagnosis1">See above (Condition/SecondaryDiagnosis1)</a></li><li><a href="#Condition_SecondaryDiagnosis2">See above (Condition/SecondaryDiagnosis2)</a></li></ul><p><b>note</b>: Patient ist sehr ängstlich</p></div>
        </text>
        <extension url="http://fhir.ch/ig/ch-orf/StructureDefinition/ch-orf-locationandtime">
          <valueReference>
            <reference value="Appointment/AppointmentHospitalStay"/>
          </valueReference>
        </extension>
        <identifier>
          <type>
            <coding>
              <system value="http://terminology.hl7.org/CodeSystem/v2-0203"/>
              <code value="PLAC"/>
            </coding>
          </type>
          <system value="urn:oid:1.3.4.5.6.7"/>
          <value value="12345"/>
        </identifier>
        <status value="active"/>
        <intent value="order"/>
        <priority value="routine"/>
        <code>
          <text value="Abkl&#xE4;rung akuter Thoraxschmerzen"/>
        </code>
        <subject>
          <reference value="Patient/SUfferer"/>
        </subject>
        <requester>
          <reference value="PractitionerRole/ORderplacerHappyDoctors"/>
        </requester>
        <reasonCode>
          <text value="Verdacht auf Myokardinfarkt"/>
        </reasonCode>
        <reasonReference>
          <reference value="Condition/PrimaryDiagnosis"/>
        </reasonReference>
        <insurance>
          <reference value="Coverage/CoverageKVG"/>
        </insurance>
        <supportingInfo>
          <reference value="Observation/BodyHeight"/>
        </supportingInfo>
        <supportingInfo>
          <reference value="Observation/BodyWeight"/>
        </supportingInfo>
        <supportingInfo>
          <reference value="Condition/SecondaryDiagnosis1"/>
        </supportingInfo>
        <supportingInfo>
          <reference value="Condition/SecondaryDiagnosis2"/>
        </supportingInfo>
        <note>
          <text value="Patient ist sehr &#xE4;ngstlich"/>
        </note>
      </ServiceRequest>
    </resource>
  </entry>
  <entry>
    <fullUrl value="http://example.com/fhir/Patient/SUfferer"/>
    <resource>
      <Patient>
        <id value="SUfferer"/>
        <meta>
          <profile value="http://fhir.ch/ig/ch-core/StructureDefinition/ch-core-patient"/>
        </meta>
        <text>
          <status value="generated"/><div xmlns="http://www.w3.org/1999/xhtml"><p><b>Generated Narrative</b></p><p><b>name</b>: Susanna Ufferer (OFFICIAL), Leidend (MAIDEN)</p><p><b>telecom</b>: <a href="tel:+41799797979">+41 79 979 79 79</a>, <a href="mailto:susanna@ufferer.ch">susanna@ufferer.ch</a></p><p><b>gender</b>: female</p><p><b>birthDate</b>: 1970-03-14</p><p><b>address</b>: Musterweg 6a Zürich 8000 Schweiz (HOME)</p></div>
        </text>
        <name>
          <use value="official"/>
          <family value="Ufferer">
            <extension url="http://fhir.ch/ig/ch-core/StructureDefinition/ch-ext-ech-11-name">
              <valueCode value="officialName"/>
            </extension>
          </family>
          <given value="Susanna">
            <extension url="http://fhir.ch/ig/ch-core/StructureDefinition/ch-ext-ech-11-firstname">
              <valueCode value="officialFirstName"/>
            </extension>
          </given>
        </name>
        <name>
          <use value="maiden"/>
          <family value="Leidend">
            <extension url="http://fhir.ch/ig/ch-core/StructureDefinition/ch-ext-ech-11-name">
              <valueCode value="originalName"/>
            </extension>
          </family>
        </name>
        <telecom>
          <system value="phone"/>
          <value value="+41 79 979 79 79"/>
        </telecom>
        <telecom>
          <system value="email"/>
          <value value="susanna@ufferer.ch"/>
        </telecom>
        <gender value="female"/>
        <birthDate value="1970-03-14"/>
        <address>
          <use value="home"/>
          <line value="Musterweg"/>
          <line value="6a"/>
          <city value="Z&#xFC;rich"/>
          <postalCode value="8000"/>
          <country value="Schweiz"/>
        </address>
      </Patient>
    </resource>
  </entry>
  <entry>
    <fullUrl value="http://example.com/fhir/Patient/SUffererCopyReceiver"/>
    <resource>
      <Patient>
        <id value="SUffererCopyReceiver"/>
        <meta>
          <profile value="http://fhir.ch/ig/ch-core/StructureDefinition/ch-core-patient"/>
        </meta>
        <text>
          <status value="generated"/><div xmlns="http://www.w3.org/1999/xhtml"><p><b>Generated Narrative</b></p><p><b>name</b>: Susanna Ufferer </p><p><b>telecom</b>: <a href="tel:+41799797979">+41 79 979 79 79</a>, <a href="mailto:susanna@ufferer.ch">susanna@ufferer.ch</a></p><p><b>address</b>: Musterweg 6a Zürich 8000 Schweiz (HOME)</p></div>
        </text>
        <name>
          <family value="Ufferer"/>
          <given value="Susanna"/>
        </name>
        <telecom>
          <system value="phone"/>
          <value value="+41 79 979 79 79"/>
        </telecom>
        <telecom>
          <system value="email"/>
          <value value="susanna@ufferer.ch"/>
        </telecom>
        <address>
          <use value="home"/>
          <line value="Musterweg 6a"/>
          <city value="Z&#xFC;rich"/>
          <postalCode value="8000"/>
          <country value="Schweiz"/>
        </address>
      </Patient>
    </resource>
  </entry>
  <entry>
    <fullUrl value="http://example.com/fhir/PractitionerRole/DAtaentererHappyDoctors"/>
    <resource>
      <PractitionerRole>
        <id value="DAtaentererHappyDoctors"/>
        <meta>
          <profile value="http://fhir.ch/ig/ch-core/StructureDefinition/ch-core-practitionerrole"/>
        </meta>
        <text>
          <status value="generated"/><div xmlns="http://www.w3.org/1999/xhtml"><p><b>Generated Narrative</b></p><p><b>practitioner</b>: <a href="#Practitioner_DAtaenterer">See above (Practitioner/DAtaenterer)</a></p><p><b>organization</b>: <a href="#Organization_HappyDoctors">See above (Organization/HappyDoctors)</a></p></div>
        </text>
        <practitioner>
          <reference value="Practitioner/DAtaenterer"/>
        </practitioner>
        <organization>
          <reference value="Organization/HappyDoctors"/>
        </organization>
      </PractitionerRole>
    </resource>
  </entry>
  <entry>
    <fullUrl value="http://example.com/fhir/Practitioner/DAtaenterer"/>
    <resource>
      <Practitioner>
        <id value="DAtaenterer"/>
        <meta>
          <profile value="http://fhir.ch/ig/ch-core/StructureDefinition/ch-core-practitioner"/>
        </meta>
        <text>
          <status value="generated"/><div xmlns="http://www.w3.org/1999/xhtml"><p><b>Generated Narrative</b></p><p><b>name</b>: Doris Ataenterer </p><p><b>telecom</b>: <a href="tel:+41443332211">+41 44 333 22 11</a>, <a href="mailto:d.ataenterer@happydoctors.ch">d.ataenterer@happydoctors.ch</a></p></div>
        </text>
        <name>
          <family value="Ataenterer"/>
          <given value="Doris"/>
        </name>
        <telecom>
          <system value="phone"/>
          <value value="+41 44 333 22 11"/>
        </telecom>
        <telecom>
          <system value="email"/>
          <value value="d.ataenterer@happydoctors.ch"/>
        </telecom>
      </Practitioner>
    </resource>
  </entry>
  <entry>
    <fullUrl value="http://example.com/fhir/PractitionerRole/ORderplacerHappyDoctors"/>
    <resource>
      <PractitionerRole>
        <id value="ORderplacerHappyDoctors"/>
        <meta>
          <profile value="http://fhir.ch/ig/ch-core/StructureDefinition/ch-core-practitionerrole"/>
        </meta>
        <text>
          <status value="generated"/><div xmlns="http://www.w3.org/1999/xhtml"><p><b>Generated Narrative</b></p><p><b>practitioner</b>: <a href="#Practitioner_ORderplacer">See above (Practitioner/ORderplacer)</a></p><p><b>organization</b>: <a href="#Organization_HappyDoctors">See above (Organization/HappyDoctors)</a></p></div>
        </text>
        <practitioner>
          <reference value="Practitioner/ORderplacer"/>
        </practitioner>
        <organization>
          <reference value="Organization/HappyDoctors"/>
        </organization>
      </PractitionerRole>
    </resource>
  </entry>
  <entry>
    <fullUrl value="http://example.com/fhir/Practitioner/ORderplacer"/>
    <resource>
      <Practitioner>
        <id value="ORderplacer"/>
        <meta>
          <profile value="http://fhir.ch/ig/ch-core/StructureDefinition/ch-core-practitioner"/>
        </meta>
        <text>
          <status value="generated"/><div xmlns="http://www.w3.org/1999/xhtml"><p><b>Generated Narrative</b></p><p><b>identifier</b>: id: 7601000034321</p><p><b>name</b>: Ottilie Rderplacer (OFFICIAL)</p><p><b>telecom</b>: <a href="tel:+41443332211">+41 44 333 22 11</a>, <a href="mailto:o.rderplacer@happydoctors.ch">o.rderplacer@happydoctors.ch</a></p></div>
        </text>
        <identifier>
          <system value="urn:oid:2.51.1.3"/>
          <value value="7601000034321"/>
        </identifier>
        <name>
          <use value="official"/>
          <family value="Rderplacer"/>
          <given value="Ottilie"/>
          <prefix value="Dr. med.">
            <extension url="http://hl7.org/fhir/StructureDefinition/iso21090-EN-qualifier">
              <valueCode value="AC"/>
            </extension>
          </prefix>
        </name>
        <telecom>
          <system value="phone"/>
          <value value="+41 44 333 22 11"/>
        </telecom>
        <telecom>
          <system value="email"/>
          <value value="o.rderplacer@happydoctors.ch"/>
        </telecom>
      </Practitioner>
    </resource>
  </entry>
  <entry>
    <fullUrl value="http://example.com/fhir/PractitionerRole/MedicalDepartmentHappyHospital"/>
    <resource>
      <PractitionerRole>
        <id value="MedicalDepartmentHappyHospital"/>
        <meta>
          <profile value="http://fhir.ch/ig/ch-core/StructureDefinition/ch-core-practitionerrole"/>
        </meta>
        <text>
          <status value="generated"/><div xmlns="http://www.w3.org/1999/xhtml"><p><b>Generated Narrative</b></p><p><b>organization</b>: <a href="#Organization_HappyHospital">See above (Organization/HappyHospital)</a></p></div>
        </text>
        <organization>
          <reference value="Organization/HappyHospital"/>
        </organization>
      </PractitionerRole>
    </resource>
  </entry>
  <entry>
    <fullUrl value="http://example.com/fhir/Organization/HappyDoctors"/>
    <resource>
      <Organization>
        <id value="HappyDoctors"/>
        <meta>
          <profile value="http://fhir.ch/ig/ch-core/StructureDefinition/ch-core-organization"/>
        </meta>
        <text>
          <status value="generated"/><div xmlns="http://www.w3.org/1999/xhtml"><p><b>Generated Narrative</b></p><p><b>name</b>: Praxis Happy Docotors</p><p><b>address</b>: Kantonsstrasse 14 Postfach 14 Zürich 8000 Schweiz </p></div>
        </text>
        <name value="Praxis Happy Docotors"/>
        <address>
          <line value="Kantonsstrasse 14"/>
          <line value="Postfach 14"/>
          <city value="Z&#xFC;rich"/>
          <postalCode value="8000"/>
          <country value="Schweiz"/>
        </address>
      </Organization>
    </resource>
  </entry>
  <entry>
    <fullUrl value="http://example.com/fhir/Organization/HappyHospital"/>
    <resource>
      <Organization>
        <id value="HappyHospital"/>
        <meta>
          <profile value="http://fhir.ch/ig/ch-core/StructureDefinition/ch-core-organization"/>
        </meta>
        <text>
          <status value="generated"/><div xmlns="http://www.w3.org/1999/xhtml"><p><b>Generated Narrative</b></p><p><b>name</b>: Klinik Happy Hospital</p><p><b>address</b>: Seestrasse 133 Haus C Zürich 8000 Schweiz </p></div>
        </text>
        <name value="Klinik Happy Hospital"/>
        <address>
          <line value="Seestrasse 133"/>
          <line value="Haus C"/>
          <city value="Z&#xFC;rich"/>
          <postalCode value="8000"/>
          <country value="Schweiz"/>
        </address>
      </Organization>
    </resource>
  </entry>
  <entry>
    <fullUrl value="http://example.com/fhir/Condition/PrimaryDiagnosis"/>
    <resource>
      <Condition>
        <id value="PrimaryDiagnosis"/>
        <meta>
          <profile value="http://fhir.ch/ig/ch-etoc/StructureDefinition/ch-etoc-primary-diagnosis"/>
        </meta>
        <text>
          <status value="generated"/><div xmlns="http://www.w3.org/1999/xhtml"><p><b>Generated Narrative</b></p><p><b>category</b>: <span title="Codes: {http://fhir.ch/ig/ch-etoc/CodeSystem/ch-etoc-conditioncategory primary-diagnosis}">Primary Diagnosis</span></p><p><b>code</b>: <span title="Codes: ">St. nach Bypass 2007</span></p><p><b>subject</b>: <a href="#Patient_SUfferer">See above (Patient/SUfferer)</a></p></div>
        </text>
        <category>
          <coding>
            <system value="http://fhir.ch/ig/ch-etoc/CodeSystem/ch-etoc-conditioncategory"/>
            <code value="primary-diagnosis"/>
            <display value="Primary Diagnosis"/>
          </coding>
        </category>
        <code>
          <text value="St. nach Bypass 2007"/>
        </code>
        <subject>
          <reference value="Patient/SUfferer"/>
        </subject>
      </Condition>
    </resource>
  </entry>
  <entry>
    <fullUrl value="http://example.com/fhir/Condition/SecondaryDiagnosis1"/>
    <resource>
      <Condition>
        <id value="SecondaryDiagnosis1"/>
        <meta>
          <profile value="http://fhir.ch/ig/ch-etoc/StructureDefinition/ch-etoc-secondary-diagnosis"/>
        </meta>
        <text>
          <status value="generated"/><div xmlns="http://www.w3.org/1999/xhtml"><p><b>Generated Narrative</b></p><p><b>category</b>: <span title="Codes: {http://fhir.ch/ig/ch-etoc/CodeSystem/ch-etoc-conditioncategory secondary-diagnosis}">Secondary Diagnosis</span></p><p><b>code</b>: <span title="Codes: ">Hypertonie (Syst um 180 mm HG)</span></p><p><b>subject</b>: <a href="#Patient_SUfferer">See above (Patient/SUfferer)</a></p></div>
        </text>
        <category>
          <coding>
            <system value="http://fhir.ch/ig/ch-etoc/CodeSystem/ch-etoc-conditioncategory"/>
            <code value="secondary-diagnosis"/>
            <display value="Secondary Diagnosis"/>
          </coding>
        </category>
        <code>
          <text value="Hypertonie (Syst um 180 mm HG)"/>
        </code>
        <subject>
          <reference value="Patient/SUfferer"/>
        </subject>
      </Condition>
    </resource>
  </entry>
  <entry>
    <fullUrl value="http://example.com/fhir/Condition/SecondaryDiagnosis2"/>
    <resource>
      <Condition>
        <id value="SecondaryDiagnosis2"/>
        <meta>
          <profile value="http://fhir.ch/ig/ch-etoc/StructureDefinition/ch-etoc-secondary-diagnosis"/>
        </meta>
        <text>
          <status value="generated"/><div xmlns="http://www.w3.org/1999/xhtml"><p><b>Generated Narrative</b></p><p><b>category</b>: <span title="Codes: {http://fhir.ch/ig/ch-etoc/CodeSystem/ch-etoc-conditioncategory secondary-diagnosis}">Secondary Diagnosis</span></p><p><b>code</b>: <span title="Codes: ">Hypercholesterinämie</span></p><p><b>subject</b>: <a href="#Patient_SUfferer">See above (Patient/SUfferer)</a></p></div>
        </text>
        <category>
          <coding>
            <system value="http://fhir.ch/ig/ch-etoc/CodeSystem/ch-etoc-conditioncategory"/>
            <code value="secondary-diagnosis"/>
            <display value="Secondary Diagnosis"/>
          </coding>
        </category>
        <code>
          <text value="Hypercholesterin&#xE4;mie"/>
        </code>
        <subject>
          <reference value="Patient/SUfferer"/>
        </subject>
      </Condition>
    </resource>
  </entry>
  <entry>
    <fullUrl value="http://example.com/fhir/Observation/BodyHeight"/>
    <resource>
      <Observation>
        <id value="BodyHeight"/>
        <meta>
          <profile value="http://fhir.ch/ig/ch-etoc/StructureDefinition/ch-etoc-bodyheight-observation"/>
        </meta>
        <text>
          <status value="generated"/><div xmlns="http://www.w3.org/1999/xhtml"><p><b>Generated Narrative</b></p><p></p><p><b>category</b>: <span title="Codes: {http://terminology.hl7.org/CodeSystem/observation-category vital-signs}">Vital Signs</span></p><p><b>code</b>: <span title="Codes: {http://loinc.org 8302-2}">Body height</span></p><p><b>subject</b>: <a href="#Patient_SUfferer">See above (Patient/SUfferer)</a></p><p><b>effective</b>: Apr 1, 2019, 12:10:00 PM</p><p><b>value</b>: 176 cm</p></div>
        </text>
        <status value="final"/>
        <category>
          <coding>
            <system value="http://terminology.hl7.org/CodeSystem/observation-category"/>
            <code value="vital-signs"/>
          </coding>
        </category>
        <code>
          <coding>
            <system value="http://loinc.org"/>
            <code value="8302-2"/>
            <display value="Body height"/>
          </coding>
        </code>
        <subject>
          <reference value="Patient/SUfferer"/>
        </subject>
        <effectiveDateTime value="2019-04-01T10:10:00.000+00:00"/>
        <valueQuantity>
          <value value="176"/>
          <unit value="cm"/>
          <system value="http://unitsofmeasure.org"/>
          <code value="cm"/>
        </valueQuantity>
      </Observation>
    </resource>
  </entry>
  <entry>
    <fullUrl value="http://example.com/fhir/Observation/BodyWeight"/>
    <resource>
      <Observation>
        <id value="BodyWeight"/>
        <meta>
          <profile value="http://fhir.ch/ig/ch-etoc/StructureDefinition/ch-etoc-bodyweight-observation"/>
        </meta>
        <text>
          <status value="generated"/><div xmlns="http://www.w3.org/1999/xhtml"><p><b>Generated Narrative</b></p><p></p><p><b>category</b>: <span title="Codes: {http://terminology.hl7.org/CodeSystem/observation-category vital-signs}">Vital Signs</span></p><p><b>code</b>: <span title="Codes: {http://loinc.org 29463-7}">Body weight</span></p><p><b>subject</b>: <a href="#Patient_SUfferer">See above (Patient/SUfferer)</a></p><p><b>effective</b>: Apr 1, 2019, 12:10:00 PM</p><p><b>value</b>: 99 kg</p></div>
        </text>
        <status value="final"/>
        <category>
          <coding>
            <system value="http://terminology.hl7.org/CodeSystem/observation-category"/>
            <code value="vital-signs"/>
          </coding>
        </category>
        <code>
          <coding>
            <system value="http://loinc.org"/>
            <code value="29463-7"/>
            <display value="Body weight"/>
          </coding>
        </code>
        <subject>
          <reference value="Patient/SUfferer"/>
        </subject>
        <effectiveDateTime value="2019-04-01T10:10:00.000+00:00"/>
        <valueQuantity>
          <value value="99"/>
          <unit value="kg"/>
          <system value="http://unitsofmeasure.org"/>
          <code value="kg"/>
        </valueQuantity>
      </Observation>
    </resource>
  </entry>
  <entry>
    <fullUrl value="http://example.com/fhir/Coverage/CoverageKVG"/>
    <resource>
      <Coverage>
        <id value="CoverageKVG"/>
        <meta>
          <profile value="http://fhir.ch/ig/ch-orf/StructureDefinition/ch-orf-coverage"/>
        </meta>
        <text>
          <status value="generated"/><div xmlns="http://www.w3.org/1999/xhtml"><p><b>Generated Narrative</b></p><p><b>identifier</b>: Insurance Card Number: 80756015090002647590</p><p><b>status</b>: active</p><p><b>type</b>: <span title="Codes: {http://fhir.ch/ig/ch-orf/CodeSystem/ch-orf-cs-coveragetype KVG}">According to KVG</span></p><p><b>beneficiary</b>: <a href="#Patient_SUfferer">See above (Patient/SUfferer)</a></p><p><b>payor</b>: <a name="Sanitas"> </a></p><blockquote><p><b>name</b>: Sanitas</p></blockquote></div>
        </text>
        <contained>
          <Organization>
            <id value="Sanitas"/>
            <meta>
              <profile value="http://fhir.ch/ig/ch-core/StructureDefinition/ch-core-organization"/>
            </meta>
            <name value="Sanitas"/>
          </Organization>
        </contained>
        <identifier>
          <type>
            <coding>
              <system value="http://fhir.ch/ig/ch-orf/CodeSystem/ch-orf-cs-coverageidentifiertype"/>
              <code value="VeKa"/>
            </coding>
          </type>
          <value value="80756015090002647590"/>
        </identifier>
        <status value="active"/>
        <type>
          <coding>
            <system value="http://fhir.ch/ig/ch-orf/CodeSystem/ch-orf-cs-coveragetype"/>
            <code value="KVG"/>
            <display value="According to KVG"/>
          </coding>
        </type>
        <beneficiary>
          <reference value="Patient/SUfferer"/>
        </beneficiary>
        <payor>
          <reference value="#Sanitas"/>
        </payor>
      </Coverage>
    </resource>
  </entry>
  <entry>
    <fullUrl value="http://example.com/fhir/Appointment/AppointmentHospitalStay"/>
    <resource>
      <Appointment>
        <id value="AppointmentHospitalStay"/>
        <meta>
          <profile value="http://fhir.ch/ig/ch-orf/StructureDefinition/ch-orf-appointment"/>
        </meta>
        <text>
          <status value="generated"/><div xmlns="http://www.w3.org/1999/xhtml"><p><b>Generated Narrative</b></p><p><b>status</b>: proposed</p><p><b>patientInstruction</b>: Wunschtermin der Patientin</p><h3>Participants</h3><table class="grid"><tr><td>-</td><td><b>Actor</b></td><td><b>Status</b></td></tr><tr><td>*</td><td><a href="#Location_LocationHospitalStay">See above (Location/LocationHospitalStay)</a></td><td>tentative</td></tr></table><p><b>requestedPeriod</b>: Apr 1, 2019, 5:00:00 PM --&gt; Apr 1, 2019, 5:30:00 PM</p></div>
        </text>
        <status value="proposed"/>
        <patientInstruction value="Wunschtermin der Patientin"/>
        <participant>
          <actor>
            <reference value="Location/LocationHospitalStay"/>
          </actor>
          <status value="tentative"/>
        </participant>
        <requestedPeriod>
          <start value="2019-04-01T15:00:00.000+00:00"/>
          <end value="2019-04-01T15:30:00.000+00:00"/>
        </requestedPeriod>
      </Appointment>
    </resource>
  </entry>
  <entry>
    <fullUrl value="http://example.com/fhir/Location/LocationHospitalStay"/>
    <resource>
      <Location>
        <id value="LocationHospitalStay"/>
        <meta>
          <profile value="http://fhir.ch/ig/ch-orf/StructureDefinition/ch-orf-location"/>
        </meta>
        <text>
          <status value="generated"/><div xmlns="http://www.w3.org/1999/xhtml"><p><b>Generated Narrative</b></p><p><b>name</b>: Happy Hospital</p><p><b>telecom</b>: <a href="tel:+41444126556">+41 44 412 65 56</a></p><p><b>address</b>: Seestrasse 133 Innere Medizin Zürich 8000 Schweiz </p></div>
        </text>
        <name value="Happy Hospital"/>
        <telecom>
          <system value="phone"/>
          <value value="+41 44 412 65 56"/>
        </telecom>
        <address>
          <line value="Seestrasse 133"/>
          <line value="Innere Medizin"/>
          <city value="Z&#xFC;rich"/>
          <postalCode value="8000"/>
          <country value="Schweiz"/>
        </address>
      </Location>
    </resource>
  </entry>
</Bundle>